StairLoop.thisTrialN,StairLoop.stepSize,StairLoop.intensity,StairLoop2.thisTrialN,StairLoop2.stepSize,StairLoop2.intensity,thisRow.t,notes,Intro.started,Instructions.started,key_resp_2.started,Intro.stopped,key_resp_2.keys,key_resp_2.rt,key_resp_2.duration,Left.started,Arrow.started,key_resp.started,Left.stopped,StairLoop.response,key_resp.rt,Pre_SecondBlock.started,key_resp_3.started,Change_eye.started,Pre_SecondBlock.stopped,key_resp_3.keys,key_resp_3.rt,key_resp_3.duration,Right.started,Arrow2.started,Key_Resp2.started,Right.stopped,StairLoop2.response,Key_Resp2.rt,End.started,End.stopped,participant,Age,Gender(M/F/N),Dominant Eye(L/R),Handedness(L/R),date,expName,psychopyVersion,frameRate,expStart,
,,,,,,,,0.0028361999999901855,0.006290400000011687,0.006290400000011687,11.32374390000001,space,11.227349799999985,None,,,,,,,,,,,,,,,,,,,,,,AK,45,M,R,R,2025-02-14_11h24.28.427,ContrastSen,2024.2.4,60.116927423844885,2025-02-14 11h24.53.653479 +0000,
0,0.6,1.0,,,,11.328998299999995,,,,,,,,,11.323938499999997,11.328998299999995,11.328998299999995,12.75063449999999,1,1.4108541999999886,,,,,,,,,,,,,,,,AK,45,M,R,R,2025-02-14_11h24.28.427,ContrastSen,2024.2.4,60.116927423844885,2025-02-14 11h24.53.653479 +0000,
1,0.6,0.251188643150958,,,,12.76672339999999,,,,,,,,,12.750927700000005,12.76672339999999,12.76672339999999,13.550955899999991,1,0.7677161000000012,,,,,,,,,,,,,,,,AK,45,M,R,R,2025-02-14_11h24.28.427,ContrastSen,2024.2.4,60.116927423844885,2025-02-14 11h24.53.653479 +0000,
2,0.6,0.06309573444801933,,,,13.566752000000008,,,,,,,,,13.551091799999995,13.566752000000008,13.566752000000008,14.117352900000014,1,0.5464431000000047,,,,,,,,,,,,,,,,AK,45,M,R,R,2025-02-14_11h24.28.427,ContrastSen,2024.2.4,60.116927423844885,2025-02-14 11h24.53.653479 +0000,
3,0.6,0.015848931924611138,,,,14.132932100000005,,,,,,,,,14.117483499999992,14.132932100000005,14.132932100000005,15.00162689999999,1,0.867212099999989,,,,,,,,,,,,,,,,AK,45,M,R,R,2025-02-14_11h24.28.427,ContrastSen,2024.2.4,60.116927423844885,2025-02-14 11h24.53.653479 +0000,
4,0.6,0.003981071705534973,,,,15.016687100000013,,,,,,,,,15.00187249999999,15.016687100000013,15.016687100000013,24.283573899999993,1,9.257754299999988,,,,,,,,,,,,,,,,AK,45,M,R,R,2025-02-14_11h24.28.427,ContrastSen,2024.2.4,60.116927423844885,2025-02-14 11h24.53.653479 +0000,
5,0.4,0.0010000000000000002,,,,24.29936839999999,,,,,,,,,24.283753899999994,24.29936839999999,24.29936839999999,25.933817199999993,0,1.6222170000000062,,,,,,,,,,,,,,,,AK,45,M,R,R,2025-02-14_11h24.28.427,ContrastSen,2024.2.4,60.116927423844885,2025-02-14 11h24.53.653479 +0000,
6,0.4,0.0025118864315095807,,,,25.949702000000002,,,,,,,,,25.933971600000007,25.949702000000002,25.949702000000002,27.517707400000006,0,1.5605436000000168,,,,,,,,,,,,,,,,AK,45,M,R,R,2025-02-14_11h24.28.427,ContrastSen,2024.2.4,60.116927423844885,2025-02-14 11h24.53.653479 +0000,
7,0.4,0.006309573444801934,,,,27.533006400000005,,,,,,,,,27.518023999999997,27.533006400000005,27.533006400000005,28.351291599999996,0,0.8011800000000164,,,,,,,,,,,,,,,,AK,45,M,R,R,2025-02-14_11h24.28.427,ContrastSen,2024.2.4,60.116927423844885,2025-02-14 11h24.53.653479 +0000,
8,0.4,0.015848931924611138,,,,28.366185599999994,,,,,,,,,28.351628599999998,28.366185599999994,28.366185599999994,29.28349460000001,1,0.9132381000000009,,,,,,,,,,,,,,,,AK,45,M,R,R,2025-02-14_11h24.28.427,ContrastSen,2024.2.4,60.116927423844885,2025-02-14 11h24.53.653479 +0000,
9,0.4,0.015848931924611138,,,,29.299538000000013,,,,,,,,,29.28368230000001,29.299538000000013,29.299538000000013,30.767956999999996,1,1.4511664999999994,,,,,,,,,,,,,,,,AK,45,M,R,R,2025-02-14_11h24.28.427,ContrastSen,2024.2.4,60.116927423844885,2025-02-14 11h24.53.653479 +0000,
10,0.4,0.015848931924611138,,,,30.783046000000013,,,,,,,,,30.76817410000001,30.783046000000013,30.783046000000013,31.38367199999999,1,0.583963400000016,,,,,,,,,,,,,,,,AK,45,M,R,R,2025-02-14_11h24.28.427,ContrastSen,2024.2.4,60.116927423844885,2025-02-14 11h24.53.653479 +0000,
11,0.2,0.006309573444801934,,,,31.39930609999999,,,,,,,,,31.383803900000004,31.39930609999999,31.39930609999999,32.984616700000004,0,1.5816187999999727,,,,,,,,,,,,,,,,AK,45,M,R,R,2025-02-14_11h24.28.427,ContrastSen,2024.2.4,60.116927423844885,2025-02-14 11h24.53.653479 +0000,
12,0.2,0.010000000000000002,,,,32.9993637,,,,,,,,,32.984962499999995,32.9993637,32.9993637,34.450009300000005,0,1.439195500000011,,,,,,,,,,,,,,,,AK,45,M,R,R,2025-02-14_11h24.28.427,ContrastSen,2024.2.4,60.116927423844885,2025-02-14 11h24.53.653479 +0000,
13,0.2,0.015848931924611138,,,,34.465900300000015,,,,,,,,,34.450138100000004,34.465900300000015,34.465900300000015,35.4333709,1,0.9652446999999995,,,,,,,,,,,,,,,,AK,45,M,R,R,2025-02-14_11h24.28.427,ContrastSen,2024.2.4,60.116927423844885,2025-02-14 11h24.53.653479 +0000,
14,0.2,0.015848931924611138,,,,35.44931020000001,,,,,,,,,35.4336218,35.44931020000001,35.44931020000001,36.249963699999995,1,0.7897595000000024,,,,,,,,,,,,,,,,AK,45,M,R,R,2025-02-14_11h24.28.427,ContrastSen,2024.2.4,60.116927423844885,2025-02-14 11h24.53.653479 +0000,
15,0.1,0.015848931924611138,,,,36.2658974,,,,,,,,,36.250115300000004,36.2658974,36.2658974,36.983452400000004,1,0.7103914999999859,,,,,,,,,,,,,,,,AK,45,M,R,R,2025-02-14_11h24.28.427,ContrastSen,2024.2.4,60.116927423844885,2025-02-14 11h24.53.653479 +0000,
16,0.1,0.012589254117941673,,,,36.999147600000015,,,,,,,,,36.9836445,36.999147600000015,36.999147600000015,37.80015449999999,1,0.7915952999999831,,,,,,,,,,,,,,,,AK,45,M,R,R,2025-02-14_11h24.28.427,ContrastSen,2024.2.4,60.116927423844885,2025-02-14 11h24.53.653479 +0000,
17,0.1,0.012589254117941673,,,,37.81578189999999,,,,,,,,,37.800322800000004,37.81578189999999,37.81578189999999,38.416537500000004,1,0.5963639000000001,,,,,,,,,,,,,,,,AK,45,M,R,R,2025-02-14_11h24.28.427,ContrastSen,2024.2.4,60.116927423844885,2025-02-14 11h24.53.653479 +0000,
18,0.1,0.012589254117941673,,,,38.432527600000014,,,,,,,,,38.416681600000004,38.432527600000014,38.432527600000014,39.2174564,1,0.7745788000000005,,,,,,,,,,,,,,,,AK,45,M,R,R,2025-02-14_11h24.28.427,ContrastSen,2024.2.4,60.116927423844885,2025-02-14 11h24.53.653479 +0000,
19,0.1,0.01,,,,39.23274979999999,,,,,,,,,39.21758750000001,39.23274979999999,39.23274979999999,39.8168622,1,0.5773803000000157,,,,,,,,,,,,,,,,AK,45,M,R,R,2025-02-14_11h24.28.427,ContrastSen,2024.2.4,60.116927423844885,2025-02-14 11h24.53.653479 +0000,
20,0.1,0.01,,,,39.832671300000015,,,,,,,,,39.8169977,39.832671300000015,39.832671300000015,40.73373749999999,1,0.8841886000000159,,,,,,,,,,,,,,,,AK,45,M,R,R,2025-02-14_11h24.28.427,ContrastSen,2024.2.4,60.116927423844885,2025-02-14 11h24.53.653479 +0000,
21,0.1,0.01,,,,40.7490612,,,,,,,,,40.73391380000001,40.7490612,40.7490612,41.88313880000001,1,1.1318296000000032,,,,,,,,,,,,,,,,AK,45,M,R,R,2025-02-14_11h24.28.427,ContrastSen,2024.2.4,60.116927423844885,2025-02-14 11h24.53.653479 +0000,
22,0.1,0.007943282347242816,,,,41.899239800000004,,,,,,,,,41.88330640000001,41.899239800000004,41.899239800000004,45.21673319999999,1,3.3028162999999893,,,,,,,,,,,,,,,,AK,45,M,R,R,2025-02-14_11h24.28.427,ContrastSen,2024.2.4,60.116927423844885,2025-02-14 11h24.53.653479 +0000,
23,0.1,0.007943282347242816,,,,45.2329211,,,,,,,,,45.21690799999999,45.2329211,45.2329211,45.9832547,1,0.7412251000000083,,,,,,,,,,,,,,,,AK,45,M,R,R,2025-02-14_11h24.28.427,ContrastSen,2024.2.4,60.116927423844885,2025-02-14 11h24.53.653479 +0000,
24,0.05,0.007943282347242816,,,,45.99923319999999,,,,,,,,,45.98344209999999,45.99923319999999,45.99923319999999,48.73394089999999,0,2.730302800000004,,,,,,,,,,,,,,,,AK,45,M,R,R,2025-02-14_11h24.28.427,ContrastSen,2024.2.4,60.116927423844885,2025-02-14 11h24.53.653479 +0000,
25,0.05,0.008912509381337455,,,,48.749021200000016,,,,,,,,,48.73425510000001,48.749021200000016,48.749021200000016,49.55133040000001,0,0.7888935999999944,,,,,,,,,,,,,,,,AK,45,M,R,R,2025-02-14_11h24.28.427,ContrastSen,2024.2.4,60.116927423844885,2025-02-14 11h24.53.653479 +0000,
26,0.05,0.009999999999999998,,,,49.566932699999995,,,,,,,,,49.5514694,49.566932699999995,49.566932699999995,50.333306100000016,1,0.7648926999999901,,,,,,,,,,,,,,,,AK,45,M,R,R,2025-02-14_11h24.28.427,ContrastSen,2024.2.4,60.116927423844885,2025-02-14 11h24.53.653479 +0000,
27,0.05,0.009999999999999998,,,,50.348790199999996,,,,,,,,,50.33357319999999,50.348790199999996,50.348790199999996,51.19989420000002,1,0.8405785000000208,,,,,,,,,,,,,,,,AK,45,M,R,R,2025-02-14_11h24.28.427,ContrastSen,2024.2.4,60.116927423844885,2025-02-14 11h24.53.653479 +0000,
28,0.05,0.009999999999999998,,,,51.215501200000006,,,,,,,,,51.20009400000001,51.215501200000006,51.215501200000006,51.79972380000001,1,0.5774301999999807,,,,,,,,,,,,,,,,AK,45,M,R,R,2025-02-14_11h24.28.427,ContrastSen,2024.2.4,60.116927423844885,2025-02-14 11h24.53.653479 +0000,
29,0.05,0.008912509381337455,,,,51.8154093,,,,,,,,,51.799914,51.8154093,51.8154093,53.251221799999996,1,1.4322540000000004,,,,,,,,,,,,,,,,AK,45,M,R,R,2025-02-14_11h24.28.427,ContrastSen,2024.2.4,60.116927423844885,2025-02-14 11h24.53.653479 +0000,
30,0.05,0.008912509381337455,,,,53.2656193,,,,,,,,,53.2517052,53.2656193,53.2656193,54.13319100000001,1,0.8599137999999868,,,,,,,,,,,,,,,,AK,45,M,R,R,2025-02-14_11h24.28.427,ContrastSen,2024.2.4,60.116927423844885,2025-02-14 11h24.53.653479 +0000,
31,0.05,0.008912509381337455,,,,54.148852000000005,,,,,,,,,54.13345939999999,54.148852000000005,54.148852000000005,55.432700900000015,1,1.2680430000000058,,,,,,,,,,,,,,,,AK,45,M,R,R,2025-02-14_11h24.28.427,ContrastSen,2024.2.4,60.116927423844885,2025-02-14 11h24.53.653479 +0000,
32,0.05,0.007943282347242816,,,,55.44902909999999,,,,,,,,,55.4328347,55.44902909999999,55.44902909999999,56.3503757,1,0.8933644999999899,,,,,,,,,,,,,,,,AK,45,M,R,R,2025-02-14_11h24.28.427,ContrastSen,2024.2.4,60.116927423844885,2025-02-14 11h24.53.653479 +0000,
33,0.05,0.007943282347242816,,,,56.365537200000006,,,,,,,,,56.3505318,56.365537200000006,56.365537200000006,58.815915200000006,1,2.440704799999992,,,,,,,,,,,,,,,,AK,45,M,R,R,2025-02-14_11h24.28.427,ContrastSen,2024.2.4,60.116927423844885,2025-02-14 11h24.53.653479 +0000,
34,0.05,0.007943282347242816,,,,58.83207659999999,,,,,,,,,58.81604229999999,58.83207659999999,58.83207659999999,61.1659841,0,2.317627000000016,,,,,,,,,,,,,,,,AK,45,M,R,R,2025-02-14_11h24.28.427,ContrastSen,2024.2.4,60.116927423844885,2025-02-14 11h24.53.653479 +0000,
35,0.05,0.008912509381337455,,,,61.18191970000001,,,,,,,,,61.16612700000002,61.18191970000001,61.18191970000001,62.616376,1,1.4254377000000034,,,,,,,,,,,,,,,,AK,45,M,R,R,2025-02-14_11h24.28.427,ContrastSen,2024.2.4,60.116927423844885,2025-02-14 11h24.53.653479 +0000,
36,0.05,0.008912509381337455,,,,62.63242360000001,,,,,,,,,62.616676600000005,62.63242360000001,62.63242360000001,63.54954900000001,1,0.9030046999999968,,,,,,,,,,,,,,,,AK,45,M,R,R,2025-02-14_11h24.28.427,ContrastSen,2024.2.4,60.116927423844885,2025-02-14 11h24.53.653479 +0000,
37,0.05,0.008912509381337455,,,,63.565343799999994,,,,,,,,,63.54971309999999,63.565343799999994,63.565343799999994,65.11744970000001,1,1.5460513000000162,,,,,,,,,,,,,,,,AK,45,M,R,R,2025-02-14_11h24.28.427,ContrastSen,2024.2.4,60.116927423844885,2025-02-14 11h24.53.653479 +0000,
38,0.05,0.007943282347242816,,,,65.1321859,,,,,,,,,65.1176529,65.1321859,65.1321859,68.4333212,1,3.2971557999999845,,,,,,,,,,,,,,,,AK,45,M,R,R,2025-02-14_11h24.28.427,ContrastSen,2024.2.4,60.116927423844885,2025-02-14 11h24.53.653479 +0000,
39,0.05,0.007943282347242816,,,,68.4488634,,,,,,,,,68.43349599999999,68.4488634,68.4488634,69.1992697,1,0.7478878000000009,,,,,,,,,,,,,,,,AK,45,M,R,R,2025-02-14_11h24.28.427,ContrastSen,2024.2.4,60.116927423844885,2025-02-14 11h24.53.653479 +0000,
40,0.05,0.007943282347242816,,,,69.21516120000001,,,,,,,,,69.19940740000001,69.21516120000001,69.21516120000001,70.8997477,1,1.6743505999999968,,,,,,,,,,,,,,,,AK,45,M,R,R,2025-02-14_11h24.28.427,ContrastSen,2024.2.4,60.116927423844885,2025-02-14 11h24.53.653479 +0000,
41,0.05,0.00707945784384138,,,,70.9150617,,,,,,,,,70.89994440000001,70.9150617,70.9150617,73.5828684,0,2.6629265999999916,,,,,,,,,,,,,,,,AK,45,M,R,R,2025-02-14_11h24.28.427,ContrastSen,2024.2.4,60.116927423844885,2025-02-14 11h24.53.653479 +0000,
42,0.05,0.007943282347242816,,,,73.59848840000001,,,,,,,,,73.5830506,73.59848840000001,73.59848840000001,74.53300240000002,1,0.9253230000000201,,,,,,,,,,,,,,,,AK,45,M,R,R,2025-02-14_11h24.28.427,ContrastSen,2024.2.4,60.116927423844885,2025-02-14 11h24.53.653479 +0000,
43,0.05,0.007943282347242816,,,,74.5484935,,,,,,,,,74.53324119999999,74.5484935,74.5484935,75.21596869999999,1,0.6616818999999907,,,,,,,,,,,,,,,,AK,45,M,R,R,2025-02-14_11h24.28.427,ContrastSen,2024.2.4,60.116927423844885,2025-02-14 11h24.53.653479 +0000,
44,0.05,0.007943282347242816,,,,75.23251530000002,,,,,,,,,75.2161289,75.23251530000002,75.23251530000002,76.0336485,1,0.7902468999999996,,,,,,,,,,,,,,,,AK,45,M,R,R,2025-02-14_11h24.28.427,ContrastSen,2024.2.4,60.116927423844885,2025-02-14 11h24.53.653479 +0000,
45,0.05,0.00707945784384138,,,,76.04842479999999,,,,,,,,,76.03379760000001,76.04842479999999,76.04842479999999,77.79917900000001,0,1.743688899999995,,,,,,,,,,,,,,,,AK,45,M,R,R,2025-02-14_11h24.28.427,ContrastSen,2024.2.4,60.116927423844885,2025-02-14 11h24.53.653479 +0000,
46,0.05,0.007943282347242816,,,,77.8152868,,,,,,,,,77.7993174,77.8152868,77.8152868,78.84949309999999,1,1.0323729000000128,,,,,,,,,,,,,,,,AK,45,M,R,R,2025-02-14_11h24.28.427,ContrastSen,2024.2.4,60.116927423844885,2025-02-14 11h24.53.653479 +0000,
47,0.05,0.007943282347242816,,,,78.86485350000001,,,,,,,,,78.8497064,78.86485350000001,78.86485350000001,81.2658381,1,2.390223099999986,,,,,,,,,,,,,,,,AK,45,M,R,R,2025-02-14_11h24.28.427,ContrastSen,2024.2.4,60.116927423844885,2025-02-14 11h24.53.653479 +0000,
48,0.05,0.007943282347242816,,,,81.2818916,,,,,,,,,81.26600959999999,81.2818916,81.2818916,83.2170834,1,1.924334799999997,,,,,,,,,,,,,,,,AK,45,M,R,R,2025-02-14_11h24.28.427,ContrastSen,2024.2.4,60.116927423844885,2025-02-14 11h24.53.653479 +0000,
49,0.05,0.00707945784384138,,,,83.2317262,,,,,,,,,83.2173793,83.2317262,83.2317262,84.7326746,1,1.490347000000014,,,,,,,,,,,,,,,,AK,45,M,R,R,2025-02-14_11h24.28.427,ContrastSen,2024.2.4,60.116927423844885,2025-02-14 11h24.53.653479 +0000,
,,,,,,,,,,,,,,,,,,,,,84.73274940000002,84.74834050000001,84.74834050000001,140.6153966,space,55.8587196,None,,,,,,,,,AK,45,M,R,R,2025-02-14_11h24.28.427,ContrastSen,2024.2.4,60.116927423844885,2025-02-14 11h24.53.653479 +0000,
,,,0,0.6,1.0,140.6309364,,,,,,,,,,,,,,,,,,,,,,140.61571680000003,140.6309364,140.6309364,141.6978143,1,1.052330100000006,,,AK,45,M,R,R,2025-02-14_11h24.28.427,ContrastSen,2024.2.4,60.116927423844885,2025-02-14 11h24.53.653479 +0000,
,,,1,0.6,0.251188643150958,141.71359619999998,,,,,,,,,,,,,,,,,,,,,,141.6979665,141.71359619999998,141.71359619999998,142.26486039999998,1,0.5431844000000297,,,AK,45,M,R,R,2025-02-14_11h24.28.427,ContrastSen,2024.2.4,60.116927423844885,2025-02-14 11h24.53.653479 +0000,
,,,2,0.6,0.06309573444801933,142.2805419,,,,,,,,,,,,,,,,,,,,,,142.26508439999998,142.2805419,142.2805419,142.7141954,1,0.4261311000000205,,,AK,45,M,R,R,2025-02-14_11h24.28.427,ContrastSen,2024.2.4,60.116927423844885,2025-02-14 11h24.53.653479 +0000,
,,,3,0.6,0.015848931924611138,142.7303091,,,,,,,,,,,,,,,,,,,,,,142.7143736,142.7303091,142.7303091,144.33233059999998,1,1.5996562000000267,,,AK,45,M,R,R,2025-02-14_11h24.28.427,ContrastSen,2024.2.4,60.116927423844885,2025-02-14 11h24.53.653479 +0000,
,,,4,0.4,0.003981071705534973,144.3471235,,,,,,,,,,,,,,,,,,,,,,144.33255179999998,144.3471235,144.3471235,149.81490860000002,0,5.465541799999983,,,AK,45,M,R,R,2025-02-14_11h24.28.427,ContrastSen,2024.2.4,60.116927423844885,2025-02-14 11h24.53.653479 +0000,
,,,5,0.4,0.010000000000000002,149.83056929999998,,,,,,,,,,,,,,,,,,,,,,149.8150738,149.83056929999998,149.83056929999998,151.38149220000003,0,1.5406689000000142,,,AK,45,M,R,R,2025-02-14_11h24.28.427,ContrastSen,2024.2.4,60.116927423844885,2025-02-14 11h24.53.653479 +0000,
,,,6,0.4,0.025118864315095805,151.3969925,,,,,,,,,,,,,,,,,,,,,,151.38177410000003,151.3969925,151.3969925,152.0977059,1,0.6875724999999875,,,AK,45,M,R,R,2025-02-14_11h24.28.427,ContrastSen,2024.2.4,60.116927423844885,2025-02-14 11h24.53.653479 +0000,
,,,7,0.4,0.025118864315095805,152.11339830000003,,,,,,,,,,,,,,,,,,,,,,152.09784100000002,152.11339830000003,152.11339830000003,152.74778220000002,1,0.628526499999964,,,AK,45,M,R,R,2025-02-14_11h24.28.427,ContrastSen,2024.2.4,60.116927423844885,2025-02-14 11h24.53.653479 +0000,
,,,8,0.4,0.025118864315095805,152.76349399999998,,,,,,,,,,,,,,,,,,,,,,152.74794229999998,152.76349399999998,152.76349399999998,153.9150472,1,1.1430599999999913,,,AK,45,M,R,R,2025-02-14_11h24.28.427,ContrastSen,2024.2.4,60.116927423844885,2025-02-14 11h24.53.653479 +0000,
,,,9,0.2,0.010000000000000002,153.93033150000002,,,,,,,,,,,,,,,,,,,,,,153.9152484,153.93033150000002,153.93033150000002,156.6486132,0,2.7018778999999995,,,AK,45,M,R,R,2025-02-14_11h24.28.427,ContrastSen,2024.2.4,60.116927423844885,2025-02-14 11h24.53.653479 +0000,
,,,10,0.2,0.015848931924611138,156.66343460000002,,,,,,,,,,,,,,,,,,,,,,156.64893089999998,156.66343460000002,156.66343460000002,157.84909620000002,0,1.1766041999999857,,,AK,45,M,R,R,2025-02-14_11h24.28.427,ContrastSen,2024.2.4,60.116927423844885,2025-02-14 11h24.53.653479 +0000,
,,,11,0.2,0.025118864315095808,157.8636609,,,,,,,,,,,,,,,,,,,,,,157.8494511,157.8636609,157.8636609,158.49863019999998,1,0.629908300000011,,,AK,45,M,R,R,2025-02-14_11h24.28.427,ContrastSen,2024.2.4,60.116927423844885,2025-02-14 11h24.53.653479 +0000,
,,,12,0.2,0.025118864315095808,158.5134858,,,,,,,,,,,,,,,,,,,,,,158.498875,158.5134858,158.5134858,159.21557009999998,1,0.6916922999999997,,,AK,45,M,R,R,2025-02-14_11h24.28.427,ContrastSen,2024.2.4,60.116927423844885,2025-02-14 11h24.53.653479 +0000,
,,,13,0.1,0.025118864315095808,159.23059289999998,,,,,,,,,,,,,,,,,,,,,,159.2157805,159.23059289999998,159.23059289999998,159.9147501,1,0.6777351000000067,,,AK,45,M,R,R,2025-02-14_11h24.28.427,ContrastSen,2024.2.4,60.116927423844885,2025-02-14 11h24.53.653479 +0000,
,,,14,0.1,0.019952623149688802,159.9300642,,,,,,,,,,,,,,,,,,,,,,159.9149953,159.9300642,159.9300642,160.9324214,1,0.9978610000000003,,,AK,45,M,R,R,2025-02-14_11h24.28.427,ContrastSen,2024.2.4,60.116927423844885,2025-02-14 11h24.53.653479 +0000,
,,,15,0.1,0.019952623149688802,160.947044,,,,,,,,,,,,,,,,,,,,,,160.93263919999998,160.947044,160.947044,161.81532930000003,1,0.862915600000008,,,AK,45,M,R,R,2025-02-14_11h24.28.427,ContrastSen,2024.2.4,60.116927423844885,2025-02-14 11h24.53.653479 +0000,
,,,16,0.1,0.019952623149688802,161.8302023,,,,,,,,,,,,,,,,,,,,,,161.8155474,161.8302023,161.8302023,162.63061650000003,1,0.7889499999999998,,,AK,45,M,R,R,2025-02-14_11h24.28.427,ContrastSen,2024.2.4,60.116927423844885,2025-02-14 11h24.53.653479 +0000,
,,,17,0.1,0.015848931924611138,162.6466436,,,,,,,,,,,,,,,,,,,,,,162.63073530000003,162.6466436,162.6466436,163.2146527,1,0.5600693000000092,,,AK,45,M,R,R,2025-02-14_11h24.28.427,ContrastSen,2024.2.4,60.116927423844885,2025-02-14 11h24.53.653479 +0000,
,,,18,0.1,0.015848931924611138,163.2300029,,,,,,,,,,,,,,,,,,,,,,163.21488620000002,163.2300029,163.2300029,163.93253170000003,1,0.6918782999999848,,,AK,45,M,R,R,2025-02-14_11h24.28.427,ContrastSen,2024.2.4,60.116927423844885,2025-02-14 11h24.53.653479 +0000,
,,,19,0.1,0.015848931924611138,163.9470589,,,,,,,,,,,,,,,,,,,,,,163.9327536,163.9470589,163.9470589,164.6319113,1,0.6710785999999871,,,AK,45,M,R,R,2025-02-14_11h24.28.427,ContrastSen,2024.2.4,60.116927423844885,2025-02-14 11h24.53.653479 +0000,
,,,20,0.1,0.012589254117941673,164.64723020000002,,,,,,,,,,,,,,,,,,,,,,164.63212220000003,164.64723020000002,164.64723020000002,166.2323371,1,1.5679026999999905,,,AK,45,M,R,R,2025-02-14_11h24.28.427,ContrastSen,2024.2.4,60.116927423844885,2025-02-14 11h24.53.653479 +0000,
,,,21,0.1,0.012589254117941673,166.2467112,,,,,,,,,,,,,,,,,,,,,,166.23256120000002,166.2467112,166.2467112,167.0820824,1,0.8223312000000078,,,AK,45,M,R,R,2025-02-14_11h24.28.427,ContrastSen,2024.2.4,60.116927423844885,2025-02-14 11h24.53.653479 +0000,
,,,22,0.1,0.012589254117941673,167.0971121,,,,,,,,,,,,,,,,,,,,,,167.0823835,167.0971121,167.0971121,168.0149389,1,0.9009508000000324,,,AK,45,M,R,R,2025-02-14_11h24.28.427,ContrastSen,2024.2.4,60.116927423844885,2025-02-14 11h24.53.653479 +0000,
,,,23,0.1,0.01,168.0304107,,,,,,,,,,,,,,,,,,,,,,168.01515310000002,168.0304107,168.0304107,170.030418,1,1.9952573999999572,,,AK,45,M,R,R,2025-02-14_11h24.28.427,ContrastSen,2024.2.4,60.116927423844885,2025-02-14 11h24.53.653479 +0000,
,,,24,0.1,0.01,170.0462134,,,,,,,,,,,,,,,,,,,,,,170.0305487,170.0462134,170.0462134,173.6649797,1,3.6016518000000133,,,AK,45,M,R,R,2025-02-14_11h24.28.427,ContrastSen,2024.2.4,60.116927423844885,2025-02-14 11h24.53.653479 +0000,
,,,25,0.1,0.01,173.6802138,,,,,,,,,,,,,,,,,,,,,,173.66519920000002,173.6802138,173.6802138,176.66486759999998,1,2.9748869000000013,,,AK,45,M,R,R,2025-02-14_11h24.28.427,ContrastSen,2024.2.4,60.116927423844885,2025-02-14 11h24.53.653479 +0000,
,,,26,0.05,0.007943282347242816,176.679801,,,,,,,,,,,,,,,,,,,,,,176.66515850000002,176.679801,176.679801,179.04843570000003,0,2.3593276999999944,,,AK,45,M,R,R,2025-02-14_11h24.28.427,ContrastSen,2024.2.4,60.116927423844885,2025-02-14 11h24.53.653479 +0000,
,,,27,0.05,0.008912509381337455,179.0632531,,,,,,,,,,,,,,,,,,,,,,179.0486489,179.0632531,179.0632531,179.88226910000003,0,0.8130467999999951,,,AK,45,M,R,R,2025-02-14_11h24.28.427,ContrastSen,2024.2.4,60.116927423844885,2025-02-14 11h24.53.653479 +0000,
,,,28,0.05,0.009999999999999998,179.89638029999998,,,,,,,,,,,,,,,,,,,,,,179.88250190000002,179.89638029999998,179.89638029999998,180.398659,0,0.4994236000000001,,,AK,45,M,R,R,2025-02-14_11h24.28.427,ContrastSen,2024.2.4,60.116927423844885,2025-02-14 11h24.53.653479 +0000,
,,,29,0.05,0.011220184543019632,180.41326930000002,,,,,,,,,,,,,,,,,,,,,,180.3988658,180.41326930000002,180.41326930000002,181.16430780000002,0,0.7365133999999784,,,AK,45,M,R,R,2025-02-14_11h24.28.427,ContrastSen,2024.2.4,60.116927423844885,2025-02-14 11h24.53.653479 +0000,
,,,30,0.05,0.012589254117941668,181.1798473,,,,,,,,,,,,,,,,,,,,,,181.1645466,181.1798473,181.1798473,182.69780409999998,1,1.5055593999999815,,,AK,45,M,R,R,2025-02-14_11h24.28.427,ContrastSen,2024.2.4,60.116927423844885,2025-02-14 11h24.53.653479 +0000,
,,,31,0.05,0.012589254117941668,182.71319699999998,,,,,,,,,,,,,,,,,,,,,,182.6980094,182.71319699999998,182.71319699999998,183.5145549,1,0.7969302999999854,,,AK,45,M,R,R,2025-02-14_11h24.28.427,ContrastSen,2024.2.4,60.116927423844885,2025-02-14 11h24.53.653479 +0000,
,,,32,0.05,0.012589254117941668,183.52985560000002,,,,,,,,,,,,,,,,,,,,,,183.5147554,183.52985560000002,183.52985560000002,184.51445,1,0.9818124999999895,,,AK,45,M,R,R,2025-02-14_11h24.28.427,ContrastSen,2024.2.4,60.116927423844885,2025-02-14 11h24.53.653479 +0000,
,,,33,0.05,0.011220184543019632,184.5298714,,,,,,,,,,,,,,,,,,,,,,184.51460530000003,184.5298714,184.5298714,185.54830700000002,1,1.012175099999979,,,AK,45,M,R,R,2025-02-14_11h24.28.427,ContrastSen,2024.2.4,60.116927423844885,2025-02-14 11h24.53.653479 +0000,
,,,34,0.05,0.011220184543019632,185.56319180000003,,,,,,,,,,,,,,,,,,,,,,185.54851080000003,185.56319180000003,185.56319180000003,186.7479882,1,1.1699370000000044,,,AK,45,M,R,R,2025-02-14_11h24.28.427,ContrastSen,2024.2.4,60.116927423844885,2025-02-14 11h24.53.653479 +0000,
,,,35,0.05,0.011220184543019632,186.7630851,,,,,,,,,,,,,,,,,,,,,,186.7482073,186.7630851,186.7630851,187.63163980000002,0,0.8601291999999603,,,AK,45,M,R,R,2025-02-14_11h24.28.427,ContrastSen,2024.2.4,60.116927423844885,2025-02-14 11h24.53.653479 +0000,
,,,36,0.05,0.012589254117941668,187.6464021,,,,,,,,,,,,,,,,,,,,,,187.63187900000003,187.6464021,187.6464021,188.448325,1,0.7942299999999705,,,AK,45,M,R,R,2025-02-14_11h24.28.427,ContrastSen,2024.2.4,60.116927423844885,2025-02-14 11h24.53.653479 +0000,
,,,37,0.05,0.012589254117941668,188.4630007,,,,,,,,,,,,,,,,,,,,,,188.44853340000003,188.4630007,188.4630007,189.29770209999998,1,0.8183078999999793,,,AK,45,M,R,R,2025-02-14_11h24.28.427,ContrastSen,2024.2.4,60.116927423844885,2025-02-14 11h24.53.653479 +0000,
,,,38,0.05,0.012589254117941668,189.31275549999998,,,,,,,,,,,,,,,,,,,,,,189.297912,189.31275549999998,189.31275549999998,190.0809307,1,0.7556384000000094,,,AK,45,M,R,R,2025-02-14_11h24.28.427,ContrastSen,2024.2.4,60.116927423844885,2025-02-14 11h24.53.653479 +0000,
,,,39,0.05,0.011220184543019632,190.09612400000003,,,,,,,,,,,,,,,,,,,,,,190.081214,190.09612400000003,190.09612400000003,191.13134889999998,1,1.0315772000000152,,,AK,45,M,R,R,2025-02-14_11h24.28.427,ContrastSen,2024.2.4,60.116927423844885,2025-02-14 11h24.53.653479 +0000,
,,,40,0.05,0.011220184543019632,191.1463068,,,,,,,,,,,,,,,,,,,,,,191.13153950000003,191.1463068,191.1463068,192.0302443,1,0.8725803999999471,,,AK,45,M,R,R,2025-02-14_11h24.28.427,ContrastSen,2024.2.4,60.116927423844885,2025-02-14 11h24.53.653479 +0000,
,,,41,0.05,0.011220184543019632,192.04578550000002,,,,,,,,,,,,,,,,,,,,,,192.0304066,192.04578550000002,192.04578550000002,193.0486815,1,0.9962504000000081,,,AK,45,M,R,R,2025-02-14_11h24.28.427,ContrastSen,2024.2.4,60.116927423844885,2025-02-14 11h24.53.653479 +0000,
,,,42,0.05,0.009999999999999998,193.06307900000002,,,,,,,,,,,,,,,,,,,,,,193.0489397,193.06307900000002,193.06307900000002,194.24824,1,1.1686791999999855,,,AK,45,M,R,R,2025-02-14_11h24.28.427,ContrastSen,2024.2.4,60.116927423844885,2025-02-14 11h24.53.653479 +0000,
,,,43,0.05,0.009999999999999998,194.2630812,,,,,,,,,,,,,,,,,,,,,,194.24847690000001,194.2630812,194.2630812,195.5644587,1,1.2852529000000459,,,AK,45,M,R,R,2025-02-14_11h24.28.427,ContrastSen,2024.2.4,60.116927423844885,2025-02-14 11h24.53.653479 +0000,
,,,44,0.05,0.009999999999999998,195.5797943,,,,,,,,,,,,,,,,,,,,,,195.56464499999998,195.5797943,195.5797943,196.31440099999998,1,0.7295632999999953,,,AK,45,M,R,R,2025-02-14_11h24.28.427,ContrastSen,2024.2.4,60.116927423844885,2025-02-14 11h24.53.653479 +0000,
,,,45,0.05,0.008912509381337455,196.32954239999998,,,,,,,,,,,,,,,,,,,,,,196.3146041,196.32954239999998,196.32954239999998,197.59894380000003,1,1.2534757999999897,,,AK,45,M,R,R,2025-02-14_11h24.28.427,ContrastSen,2024.2.4,60.116927423844885,2025-02-14 11h24.53.653479 +0000,
,,,46,0.05,0.008912509381337455,197.61247759999998,,,,,,,,,,,,,,,,,,,,,,197.5993709,197.61247759999998,197.61247759999998,199.49653540000003,0,1.870905300000004,,,AK,45,M,R,R,2025-02-14_11h24.28.427,ContrastSen,2024.2.4,60.116927423844885,2025-02-14 11h24.53.653479 +0000,
,,,47,0.05,0.009999999999999998,199.51237079999999,,,,,,,,,,,,,,,,,,,,,,199.4967021,199.51237079999999,199.51237079999999,200.4813352,1,0.9547185000000127,,,AK,45,M,R,R,2025-02-14_11h24.28.427,ContrastSen,2024.2.4,60.116927423844885,2025-02-14 11h24.53.653479 +0000,
,,,48,0.05,0.009999999999999998,200.4963179,,,,,,,,,,,,,,,,,,,,,,200.48154420000003,200.4963179,200.4963179,201.6652974,1,1.1650099999999952,,,AK,45,M,R,R,2025-02-14_11h24.28.427,ContrastSen,2024.2.4,60.116927423844885,2025-02-14 11h24.53.653479 +0000,
,,,49,0.05,0.009999999999999998,201.67941460000003,,,,,,,,,,,,,,,,,,,,,,201.6655601,201.67941460000003,201.67941460000003,204.9313356,1,3.236893699999996,,,AK,45,M,R,R,2025-02-14_11h24.28.427,ContrastSen,2024.2.4,60.116927423844885,2025-02-14 11h24.53.653479 +0000,
,,,,,,,,,,,,,,,,,,,,,,,,,,,,,,,,,,204.9314771,204.9320866,AK,45,M,R,R,2025-02-14_11h24.28.427,ContrastSen,2024.2.4,60.116927423844885,2025-02-14 11h24.53.653479 +0000,
