StairLoop.thisTrialN,StairLoop.stepSize,StairLoop.intensity,StairLoop2.thisTrialN,StairLoop2.stepSize,StairLoop2.intensity,thisRow.t,notes,Intro.started,Instructions.started,key_resp_2.started,Intro.stopped,key_resp_2.keys,key_resp_2.rt,key_resp_2.duration,Left.started,Arrow.started,key_resp.started,Left.stopped,StairLoop.response,key_resp.rt,Pre_SecondBlock.started,key_resp_3.started,Change_eye.started,Pre_SecondBlock.stopped,key_resp_3.keys,key_resp_3.rt,key_resp_3.duration,Right.started,Arrow2.started,Key_Resp2.started,Right.stopped,StairLoop2.response,Key_Resp2.rt,End.started,End.stopped,participant,Age,Gender(M/F/N),Dominant Eye(L/R),Handedness(L/R),date,expName,psychopyVersion,frameRate,expStart,
,,,,,,,,0.10938180000812281,0.12792759999865666,0.12792759999865666,16.91658840001037,space,16.628989000004367,None,,,,,,,,,,,,,,,,,,,,,,KM,19,F,R,L,2025-02-27_13h35.39.787,ContrastSen,2024.2.4,60.061827645945066,2025-02-27 13h36.15.145123 +0000,
0,0.6,1.0,,,,16.922473600003286,,,,,,,,,16.9168570000038,16.922473600003286,16.922473600003286,17.928455700006452,1,0.9871846000023652,,,,,,,,,,,,,,,,KM,19,F,R,L,2025-02-27_13h35.39.787,ContrastSen,2024.2.4,60.061827645945066,2025-02-27 13h36.15.145123 +0000,
1,0.6,0.251188643150958,,,,17.94193539999833,,,,,,,,,17.928987200008123,17.94193539999833,17.94193539999833,18.810573300012038,1,0.8556876999937231,,,,,,,,,,,,,,,,KM,19,F,R,L,2025-02-27_13h35.39.787,ContrastSen,2024.2.4,60.061827645945066,2025-02-27 13h36.15.145123 +0000,
2,0.6,0.06309573444801933,,,,18.824929000009433,,,,,,,,,18.810960900009377,18.824929000009433,18.824929000009433,19.62610059999861,1,0.7895828000037,,,,,,,,,,,,,,,,KM,19,F,R,L,2025-02-27_13h35.39.787,ContrastSen,2024.2.4,60.061827645945066,2025-02-27 13h36.15.145123 +0000,
3,0.6,0.015848931924611138,,,,19.641358400011086,,,,,,,,,19.626307099999394,19.641358400011086,19.641358400011086,21.462159600007,1,1.8029941000131657,,,,,,,,,,,,,,,,KM,19,F,R,L,2025-02-27_13h35.39.787,ContrastSen,2024.2.4,60.061827645945066,2025-02-27 13h36.15.145123 +0000,
4,0.4,0.003981071705534973,,,,21.474838000009186,,,,,,,,,21.46284610001021,21.474838000009186,21.474838000009186,30.110461400006898,0,8.618570700011333,,,,,,,,,,,,,,,,KM,19,F,R,L,2025-02-27_13h35.39.787,ContrastSen,2024.2.4,60.061827645945066,2025-02-27 13h36.15.145123 +0000,
5,0.4,0.010000000000000002,,,,30.125024100008886,,,,,,,,,30.11094180001237,30.125024100008886,30.125024100008886,35.54516050001257,0,5.416085899996688,,,,,,,,,,,,,,,,KM,19,F,R,L,2025-02-27_13h35.39.787,ContrastSen,2024.2.4,60.061827645945066,2025-02-27 13h36.15.145123 +0000,
6,0.4,0.025118864315095805,,,,35.5580362000037,,,,,,,,,35.545548400012194,35.5580362000037,35.5580362000037,37.42775600000459,1,1.8548462000035215,,,,,,,,,,,,,,,,KM,19,F,R,L,2025-02-27_13h35.39.787,ContrastSen,2024.2.4,60.061827645945066,2025-02-27 13h36.15.145123 +0000,
7,0.4,0.025118864315095805,,,,37.44153430000006,,,,,,,,,37.428264000001946,37.44153430000006,37.44153430000006,38.243429300011485,1,0.7960175000043819,,,,,,,,,,,,,,,,KM,19,F,R,L,2025-02-27_13h35.39.787,ContrastSen,2024.2.4,60.061827645945066,2025-02-27 13h36.15.145123 +0000,
8,0.4,0.025118864315095805,,,,38.25813590000325,,,,,,,,,38.2438189000095,38.25813590000325,38.25813590000325,38.87542409999878,1,0.6140045000065584,,,,,,,,,,,,,,,,KM,19,F,R,L,2025-02-27_13h35.39.787,ContrastSen,2024.2.4,60.061827645945066,2025-02-27 13h36.15.145123 +0000,
9,0.2,0.010000000000000002,,,,38.88037959999929,,,,,,,,,38.875612500007264,38.88037959999929,38.88037959999929,40.243724300002214,0,1.3537035000044852,,,,,,,,,,,,,,,,KM,19,F,R,L,2025-02-27_13h35.39.787,ContrastSen,2024.2.4,60.061827645945066,2025-02-27 13h36.15.145123 +0000,
10,0.2,0.015848931924611138,,,,40.257983300005435,,,,,,,,,40.24419789999956,40.257983300005435,40.257983300005435,41.69422270001087,1,1.4332768000022043,,,,,,,,,,,,,,,,KM,19,F,R,L,2025-02-27_13h35.39.787,ContrastSen,2024.2.4,60.061827645945066,2025-02-27 13h36.15.145123 +0000,
11,0.2,0.015848931924611138,,,,41.7080535999994,,,,,,,,,41.69452160000219,41.7080535999994,41.7080535999994,42.81000009999843,0,1.0924104000005173,,,,,,,,,,,,,,,,KM,19,F,R,L,2025-02-27_13h35.39.787,ContrastSen,2024.2.4,60.061827645945066,2025-02-27 13h36.15.145123 +0000,
12,0.2,0.025118864315095808,,,,42.82461530000728,,,,,,,,,42.810367199999746,42.82461530000728,42.82461530000728,45.19352150001214,1,2.3516608999925666,,,,,,,,,,,,,,,,KM,19,F,R,L,2025-02-27_13h35.39.787,ContrastSen,2024.2.4,60.061827645945066,2025-02-27 13h36.15.145123 +0000,
13,0.2,0.025118864315095808,,,,45.20814010000322,,,,,,,,,45.19389690000389,45.20814010000322,45.20814010000322,46.47591540000576,1,1.2658859999937704,,,,,,,,,,,,,,,,KM,19,F,R,L,2025-02-27_13h35.39.787,ContrastSen,2024.2.4,60.061827645945066,2025-02-27 13h36.15.145123 +0000,
14,0.1,0.025118864315095808,,,,46.49082590000762,,,,,,,,,46.47621950000757,46.49082590000762,46.49082590000762,47.177526400002535,1,0.6806549000029918,,,,,,,,,,,,,,,,KM,19,F,R,L,2025-02-27_13h35.39.787,ContrastSen,2024.2.4,60.061827645945066,2025-02-27 13h36.15.145123 +0000,
15,0.1,0.019952623149688802,,,,47.19118390000949,,,,,,,,,47.17794649999996,47.19118390000949,47.19118390000949,47.8771332000033,1,0.6699637999990955,,,,,,,,,,,,,,,,KM,19,F,R,L,2025-02-27_13h35.39.787,ContrastSen,2024.2.4,60.061827645945066,2025-02-27 13h36.15.145123 +0000,
16,0.1,0.019952623149688802,,,,47.89119790001132,,,,,,,,,47.877453799999785,47.89119790001132,47.89119790001132,49.727390800006106,1,1.8199071000126423,,,,,,,,,,,,,,,,KM,19,F,R,L,2025-02-27_13h35.39.787,ContrastSen,2024.2.4,60.061827645945066,2025-02-27 13h36.15.145123 +0000,
17,0.1,0.019952623149688802,,,,49.741337200001,,,,,,,,,49.72785500000464,49.741337200001,49.741337200001,50.861257299999124,1,1.1087867000023834,,,,,,,,,,,,,,,,KM,19,F,R,L,2025-02-27_13h35.39.787,ContrastSen,2024.2.4,60.061827645945066,2025-02-27 13h36.15.145123 +0000,
18,0.1,0.015848931924611138,,,,50.874491100010346,,,,,,,,,50.86175409999851,50.874491100010346,50.874491100010346,51.860204700002214,1,0.9782739000074798,,,,,,,,,,,,,,,,KM,19,F,R,L,2025-02-27_13h35.39.787,ContrastSen,2024.2.4,60.061827645945066,2025-02-27 13h36.15.145123 +0000,
19,0.1,0.015848931924611138,,,,51.87422409999999,,,,,,,,,51.86054629999853,51.87422409999999,51.87422409999999,52.86162910000712,1,0.982541500008665,,,,,,,,,,,,,,,,KM,19,F,R,L,2025-02-27_13h35.39.787,ContrastSen,2024.2.4,60.061827645945066,2025-02-27 13h36.15.145123 +0000,
20,0.1,0.015848931924611138,,,,52.87412100000074,,,,,,,,,52.86204010000802,52.87412100000074,52.87412100000074,54.125124800004414,1,1.2380268999986583,,,,,,,,,,,,,,,,KM,19,F,R,L,2025-02-27_13h35.39.787,ContrastSen,2024.2.4,60.061827645945066,2025-02-27 13h36.15.145123 +0000,
21,0.1,0.012589254117941673,,,,54.14057509999839,,,,,,,,,54.125268000003416,54.14057509999839,54.14057509999839,56.393753299998934,1,2.243467699998291,,,,,,,,,,,,,,,,KM,19,F,R,L,2025-02-27_13h35.39.787,ContrastSen,2024.2.4,60.061827645945066,2025-02-27 13h36.15.145123 +0000,
22,0.1,0.012589254117941673,,,,56.40754690000904,,,,,,,,,56.39412789999915,56.40754690000904,56.40754690000904,57.877949000001536,1,1.4641885000019101,,,,,,,,,,,,,,,,KM,19,F,R,L,2025-02-27_13h35.39.787,ContrastSen,2024.2.4,60.061827645945066,2025-02-27 13h36.15.145123 +0000,
23,0.1,0.012589254117941673,,,,57.890993000008166,,,,,,,,,57.878498800011585,57.890993000008166,57.890993000008166,59.62586140001076,1,1.7319350999896415,,,,,,,,,,,,,,,,KM,19,F,R,L,2025-02-27_13h35.39.787,ContrastSen,2024.2.4,60.061827645945066,2025-02-27 13h36.15.145123 +0000,
24,0.1,0.01,,,,59.64049890000024,,,,,,,,,59.6261741000053,59.64049890000024,59.64049890000024,64.79413239999849,1,5.145112099999096,,,,,,,,,,,,,,,,KM,19,F,R,L,2025-02-27_13h35.39.787,ContrastSen,2024.2.4,60.061827645945066,2025-02-27 13h36.15.145123 +0000,
25,0.05,0.01,,,,64.80763770001067,,,,,,,,,64.79451150000386,64.80763770001067,64.80763770001067,68.57767270000477,0,3.7664084999996703,,,,,,,,,,,,,,,,KM,19,F,R,L,2025-02-27_13h35.39.787,ContrastSen,2024.2.4,60.061827645945066,2025-02-27 13h36.15.145123 +0000,
26,0.05,0.011220184543019634,,,,68.59063030000834,,,,,,,,,68.5780686000071,68.59063030000834,68.59063030000834,71.10940370000026,1,2.5088620000024093,,,,,,,,,,,,,,,,KM,19,F,R,L,2025-02-27_13h35.39.787,ContrastSen,2024.2.4,60.061827645945066,2025-02-27 13h36.15.145123 +0000,
27,0.05,0.011220184543019634,,,,71.12406450000708,,,,,,,,,71.10975329999928,71.12406450000708,71.12406450000708,73.57498560000386,1,2.4358933999901637,,,,,,,,,,,,,,,,KM,19,F,R,L,2025-02-27_13h35.39.787,ContrastSen,2024.2.4,60.061827645945066,2025-02-27 13h36.15.145123 +0000,
28,0.05,0.011220184543019634,,,,73.5902761000034,,,,,,,,,73.5751459000021,73.5902761000034,73.5902761000034,77.82718630001182,0,4.21834680000029,,,,,,,,,,,,,,,,KM,19,F,R,L,2025-02-27_13h35.39.787,ContrastSen,2024.2.4,60.061827645945066,2025-02-27 13h36.15.145123 +0000,
29,0.05,0.01258925411794167,,,,77.84085449999839,,,,,,,,,77.82770480000181,77.84085449999839,77.84085449999839,81.87700980000955,1,4.031438099991647,,,,,,,,,,,,,,,,KM,19,F,R,L,2025-02-27_13h35.39.787,ContrastSen,2024.2.4,60.061827645945066,2025-02-27 13h36.15.145123 +0000,
30,0.05,0.01258925411794167,,,,81.89059999999881,,,,,,,,,81.87749110000732,81.89059999999881,81.89059999999881,84.52499640001042,1,2.6213500000012573,,,,,,,,,,,,,,,,KM,19,F,R,L,2025-02-27_13h35.39.787,ContrastSen,2024.2.4,60.061827645945066,2025-02-27 13h36.15.145123 +0000,
31,0.05,0.01258925411794167,,,,84.540141400008,,,,,,,,,84.52526910000597,84.540141400008,84.540141400008,86.34300730000541,1,1.7915162999997847,,,,,,,,,,,,,,,,KM,19,F,R,L,2025-02-27_13h35.39.787,ContrastSen,2024.2.4,60.061827645945066,2025-02-27 13h36.15.145123 +0000,
32,0.05,0.011220184543019634,,,,86.3570475000015,,,,,,,,,86.34342170000309,86.3570475000015,86.3570475000015,91.4084889000078,1,5.036946400010493,,,,,,,,,,,,,,,,KM,19,F,R,L,2025-02-27_13h35.39.787,ContrastSen,2024.2.4,60.061827645945066,2025-02-27 13h36.15.145123 +0000,
33,0.05,0.011220184543019634,,,,91.42317190000904,,,,,,,,,91.40881710000394,91.42317190000904,91.42317190000904,93.6585735000117,1,2.22629560000496,,,,,,,,,,,,,,,,KM,19,F,R,L,2025-02-27_13h35.39.787,ContrastSen,2024.2.4,60.061827645945066,2025-02-27 13h36.15.145123 +0000,
34,0.05,0.011220184543019634,,,,93.67340170001262,,,,,,,,,93.65886950001004,93.67340170001262,93.67340170001262,95.97754440001154,0,2.2988343000033638,,,,,,,,,,,,,,,,KM,19,F,R,L,2025-02-27_13h35.39.787,ContrastSen,2024.2.4,60.061827645945066,2025-02-27 13h36.15.145123 +0000,
35,0.05,0.01258925411794167,,,,95.99002860000473,,,,,,,,,95.97805080001126,95.99002860000473,95.99002860000473,98.22712970001157,1,2.2252563000074588,,,,,,,,,,,,,,,,KM,19,F,R,L,2025-02-27_13h35.39.787,ContrastSen,2024.2.4,60.061827645945066,2025-02-27 13h36.15.145123 +0000,
36,0.05,0.01258925411794167,,,,98.24007250000432,,,,,,,,,98.22749130000011,98.24007250000432,98.24007250000432,103.07661450000887,0,4.826226300006965,,,,,,,,,,,,,,,,KM,19,F,R,L,2025-02-27_13h35.39.787,ContrastSen,2024.2.4,60.061827645945066,2025-02-27 13h36.15.145123 +0000,
37,0.05,0.014125375446227538,,,,103.08995350000623,,,,,,,,,103.07700050000858,103.08995350000623,103.08995350000623,105.7268378000008,1,2.630547299995669,,,,,,,,,,,,,,,,KM,19,F,R,L,2025-02-27_13h35.39.787,ContrastSen,2024.2.4,60.061827645945066,2025-02-27 13h36.15.145123 +0000,
38,0.05,0.014125375446227538,,,,105.73980980001215,,,,,,,,,105.72722080000676,105.73980980001215,105.73980980001215,106.85938030001125,1,1.1155634999886388,,,,,,,,,,,,,,,,KM,19,F,R,L,2025-02-27_13h35.39.787,ContrastSen,2024.2.4,60.061827645945066,2025-02-27 13h36.15.145123 +0000,
39,0.05,0.014125375446227538,,,,106.87336389999837,,,,,,,,,106.85971080001036,106.87336389999837,106.87336389999837,108.47707350000564,1,1.5995027000026312,,,,,,,,,,,,,,,,KM,19,F,R,L,2025-02-27_13h35.39.787,ContrastSen,2024.2.4,60.061827645945066,2025-02-27 13h36.15.145123 +0000,
40,0.05,0.01258925411794167,,,,108.48983510000107,,,,,,,,,108.47763300000224,108.48983510000107,108.48983510000107,110.70821670000441,1,2.2111585999955423,,,,,,,,,,,,,,,,KM,19,F,R,L,2025-02-27_13h35.39.787,ContrastSen,2024.2.4,60.061827645945066,2025-02-27 13h36.15.145123 +0000,
41,0.05,0.01258925411794167,,,,110.7227847000031,,,,,,,,,110.70853880001232,110.7227847000031,110.7227847000031,114.84279290000268,1,4.111738499996136,,,,,,,,,,,,,,,,KM,19,F,R,L,2025-02-27_13h35.39.787,ContrastSen,2024.2.4,60.061827645945066,2025-02-27 13h36.15.145123 +0000,
42,0.05,0.01258925411794167,,,,114.85621300000639,,,,,,,,,114.84322760000941,114.85621300000639,114.85621300000639,117.54294460000528,1,2.680169899991597,,,,,,,,,,,,,,,,KM,19,F,R,L,2025-02-27_13h35.39.787,ContrastSen,2024.2.4,60.061827645945066,2025-02-27 13h36.15.145123 +0000,
43,0.05,0.011220184543019634,,,,117.55628520000027,,,,,,,,,117.54333680000855,117.55628520000027,117.55628520000027,121.7742803000001,1,4.211650500001269,,,,,,,,,,,,,,,,KM,19,F,R,L,2025-02-27_13h35.39.787,ContrastSen,2024.2.4,60.061827645945066,2025-02-27 13h36.15.145123 +0000,
44,0.05,0.011220184543019634,,,,121.78919809999934,,,,,,,,,121.77445320000697,121.78919809999934,121.78919809999934,128.67656970000826,0,6.869893199997023,,,,,,,,,,,,,,,,KM,19,F,R,L,2025-02-27_13h35.39.787,ContrastSen,2024.2.4,60.061827645945066,2025-02-27 13h36.15.145123 +0000,
45,0.05,0.01258925411794167,,,,128.68921820000105,,,,,,,,,128.67699880000146,128.68921820000105,128.68921820000105,132.32545740000205,0,3.628009699998074,,,,,,,,,,,,,,,,KM,19,F,R,L,2025-02-27_13h35.39.787,ContrastSen,2024.2.4,60.061827645945066,2025-02-27 13h36.15.145123 +0000,
46,0.05,0.014125375446227538,,,,132.339444000012,,,,,,,,,132.32588930000202,132.339444000012,132.339444000012,133.90874180001265,1,1.5549770000070566,,,,,,,,,,,,,,,,KM,19,F,R,L,2025-02-27_13h35.39.787,ContrastSen,2024.2.4,60.061827645945066,2025-02-27 13h36.15.145123 +0000,
47,0.05,0.014125375446227538,,,,133.92271840000467,,,,,,,,,133.90910420000728,133.92271840000467,133.92271840000467,134.87532350000401,1,0.9485729000007268,,,,,,,,,,,,,,,,KM,19,F,R,L,2025-02-27_13h35.39.787,ContrastSen,2024.2.4,60.061827645945066,2025-02-27 13h36.15.145123 +0000,
48,0.05,0.014125375446227538,,,,134.88883830000123,,,,,,,,,134.8757762000023,134.88883830000123,134.88883830000123,137.92567000001145,1,3.033096300001489,,,,,,,,,,,,,,,,KM,19,F,R,L,2025-02-27_13h35.39.787,ContrastSen,2024.2.4,60.061827645945066,2025-02-27 13h36.15.145123 +0000,
49,0.05,0.01258925411794167,,,,137.9392014000041,,,,,,,,,137.92613510000228,137.9392014000041,137.9392014000041,141.09192020000773,1,3.135033400001703,,,,,,,,,,,,,,,,KM,19,F,R,L,2025-02-27_13h35.39.787,ContrastSen,2024.2.4,60.061827645945066,2025-02-27 13h36.15.145123 +0000,
,,,,,,,,,,,,,,,,,,,,,141.0921306000091,141.10560450000048,141.10560450000048,150.77510400000028,space,9.658588300007978,None,,,,,,,,,KM,19,F,R,L,2025-02-27_13h35.39.787,ContrastSen,2024.2.4,60.061827645945066,2025-02-27 13h36.15.145123 +0000,
,,,0,0.6,1.0,150.78897080000024,,,,,,,,,,,,,,,,,,,,,,150.77548039999965,150.78897080000024,150.78897080000024,153.07431010001164,1,2.2716358000034234,,,KM,19,F,R,L,2025-02-27_13h35.39.787,ContrastSen,2024.2.4,60.061827645945066,2025-02-27 13h36.15.145123 +0000,
,,,1,0.6,0.251188643150958,153.08870910000405,,,,,,,,,,,,,,,,,,,,,,153.07460020000872,153.08870910000405,153.08870910000405,153.79077150000376,1,0.6984840999939479,,,KM,19,F,R,L,2025-02-27_13h35.39.787,ContrastSen,2024.2.4,60.061827645945066,2025-02-27 13h36.15.145123 +0000,
,,,2,0.6,0.06309573444801933,153.80499440000858,,,,,,,,,,,,,,,,,,,,,,153.79106180000235,153.80499440000858,153.80499440000858,154.57396160000644,1,0.7565354999969713,,,KM,19,F,R,L,2025-02-27_13h35.39.787,ContrastSen,2024.2.4,60.061827645945066,2025-02-27 13h36.15.145123 +0000,
,,,3,0.6,0.015848931924611138,154.5887722000043,,,,,,,,,,,,,,,,,,,,,,154.5742656000075,154.5887722000043,154.5887722000043,155.85670319999917,1,1.2586220999946818,,,KM,19,F,R,L,2025-02-27_13h35.39.787,ContrastSen,2024.2.4,60.061827645945066,2025-02-27 13h36.15.145123 +0000,
,,,4,0.6,0.003981071705534973,155.87193500000285,,,,,,,,,,,,,,,,,,,,,,155.85685330000706,155.87193500000285,155.87193500000285,162.09123020000698,1,6.202406500000507,,,KM,19,F,R,L,2025-02-27_13h35.39.787,ContrastSen,2024.2.4,60.061827645945066,2025-02-27 13h36.15.145123 +0000,
,,,5,0.4,0.0010000000000000002,162.10508510000363,,,,,,,,,,,,,,,,,,,,,,162.0917221999989,162.10508510000363,162.10508510000363,167.0747776000062,0,4.956726000003982,,,KM,19,F,R,L,2025-02-27_13h35.39.787,ContrastSen,2024.2.4,60.061827645945066,2025-02-27 13h36.15.145123 +0000,
,,,6,0.4,0.0025118864315095807,167.08849350000673,,,,,,,,,,,,,,,,,,,,,,167.0752472000022,167.08849350000673,167.08849350000673,171.07503670000006,1,3.9812298999895575,,,KM,19,F,R,L,2025-02-27_13h35.39.787,ContrastSen,2024.2.4,60.061827645945066,2025-02-27 13h36.15.145123 +0000,
,,,7,0.4,0.0025118864315095807,171.0884667000064,,,,,,,,,,,,,,,,,,,,,,171.0754622000095,171.0884667000064,171.0884667000064,175.15811780000513,1,4.06064479998895,,,KM,19,F,R,L,2025-02-27_13h35.39.787,ContrastSen,2024.2.4,60.061827645945066,2025-02-27 13h36.15.145123 +0000,
,,,8,0.4,0.0025118864315095807,175.17168559999845,,,,,,,,,,,,,,,,,,,,,,175.15884420000657,175.17168559999845,175.17168559999845,181.1908725000103,1,6.003305599995656,,,KM,19,F,R,L,2025-02-27_13h35.39.787,ContrastSen,2024.2.4,60.061827645945066,2025-02-27 13h36.15.145123 +0000,
,,,9,0.4,0.0010000000000000002,181.20506570000725,,,,,,,,,,,,,,,,,,,,,,181.19120650000696,181.20506570000725,181.20506570000725,184.84083140001167,1,3.620763300001272,,,KM,19,F,R,L,2025-02-27_13h35.39.787,ContrastSen,2024.2.4,60.061827645945066,2025-02-27 13h36.15.145123 +0000,
,,,10,0.2,0.0010000000000000002,184.85497549999855,,,,,,,,,,,,,,,,,,,,,,184.84124350000639,184.85497549999855,184.85497549999855,190.47469190000265,0,5.608966400002828,,,KM,19,F,R,L,2025-02-27_13h35.39.787,ContrastSen,2024.2.4,60.061827645945066,2025-02-27 13h36.15.145123 +0000,
,,,11,0.2,0.001584893192461114,190.48789000000397,,,,,,,,,,,,,,,,,,,,,,190.47523450000153,190.48789000000397,190.48789000000397,197.12173870000697,0,6.620836200003396,,,KM,19,F,R,L,2025-02-27_13h35.39.787,ContrastSen,2024.2.4,60.061827645945066,2025-02-27 13h36.15.145123 +0000,
,,,12,0.2,0.002511886431509581,197.13741790001222,,,,,,,,,,,,,,,,,,,,,,197.12189190000936,197.13741790001222,197.13741790001222,204.67249280000397,0,7.524360800001887,,,KM,19,F,R,L,2025-02-27_13h35.39.787,ContrastSen,2024.2.4,60.061827645945066,2025-02-27 13h36.15.145123 +0000,
,,,13,0.2,0.003981071705534974,204.68739690000075,,,,,,,,,,,,,,,,,,,,,,204.67276700001094,204.68739690000075,204.68739690000075,212.80744580000464,0,8.104441999996197,,,KM,19,F,R,L,2025-02-27_13h35.39.787,ContrastSen,2024.2.4,60.061827645945066,2025-02-27 13h36.15.145123 +0000,
,,,14,0.2,0.0063095734448019355,212.82058850000612,,,,,,,,,,,,,,,,,,,,,,212.80779880000046,212.82058850000612,212.82058850000612,216.07488410000224,1,3.2437723000039114,,,KM,19,F,R,L,2025-02-27_13h35.39.787,ContrastSen,2024.2.4,60.061827645945066,2025-02-27 13h36.15.145123 +0000,
,,,15,0.2,0.0063095734448019355,216.08742950001033,,,,,,,,,,,,,,,,,,,,,,216.07544650000636,216.08742950001033,216.08742950001033,219.8903113000124,1,3.790016300001298,,,KM,19,F,R,L,2025-02-27_13h35.39.787,ContrastSen,2024.2.4,60.061827645945066,2025-02-27 13h36.15.145123 +0000,
,,,16,0.2,0.0063095734448019355,219.9041586000094,,,,,,,,,,,,,,,,,,,,,,219.89067259999865,219.9041586000094,219.9041586000094,224.63970850000624,0,4.723682600000757,,,KM,19,F,R,L,2025-02-27_13h35.39.787,ContrastSen,2024.2.4,60.061827645945066,2025-02-27 13h36.15.145123 +0000,
,,,17,0.2,0.010000000000000005,224.65347330000077,,,,,,,,,,,,,,,,,,,,,,224.6400835000095,224.65347330000077,224.65347330000077,231.57281160001003,0,6.914953500003321,,,KM,19,F,R,L,2025-02-27_13h35.39.787,ContrastSen,2024.2.4,60.061827645945066,2025-02-27 13h36.15.145123 +0000,
,,,18,0.2,0.015848931924611145,231.5870833000081,,,,,,,,,,,,,,,,,,,,,,231.57318540000415,231.5870833000081,231.5870833000081,233.3210614999989,1,1.717783200001577,,,KM,19,F,R,L,2025-02-27_13h35.39.787,ContrastSen,2024.2.4,60.061827645945066,2025-02-27 13h36.15.145123 +0000,
,,,19,0.2,0.015848931924611145,233.33665270000347,,,,,,,,,,,,,,,,,,,,,,233.3212152000051,233.33665270000347,233.33665270000347,234.92276640000637,0,1.577241299994057,,,KM,19,F,R,L,2025-02-27_13h35.39.787,ContrastSen,2024.2.4,60.061827645945066,2025-02-27 13h36.15.145123 +0000,
,,,20,0.2,0.02511886431509582,234.93716840000707,,,,,,,,,,,,,,,,,,,,,,234.9232761000021,234.93716840000707,234.93716840000707,235.82346189999953,1,0.880051200001617,,,KM,19,F,R,L,2025-02-27_13h35.39.787,ContrastSen,2024.2.4,60.061827645945066,2025-02-27 13h36.15.145123 +0000,
,,,21,0.2,0.02511886431509582,235.83716090000235,,,,,,,,,,,,,,,,,,,,,,235.82380700000795,235.83716090000235,235.83716090000235,236.45606110000517,1,0.6131862000038382,,,KM,19,F,R,L,2025-02-27_13h35.39.787,ContrastSen,2024.2.4,60.061827645945066,2025-02-27 13h36.15.145123 +0000,
,,,22,0.1,0.02511886431509582,236.47053660001257,,,,,,,,,,,,,,,,,,,,,,236.45649470000353,236.47053660001257,236.47053660001257,236.98934379999992,1,0.5125066999898991,,,KM,19,F,R,L,2025-02-27_13h35.39.787,ContrastSen,2024.2.4,60.061827645945066,2025-02-27 13h36.15.145123 +0000,
,,,23,0.1,0.01995262314968881,237.00376659999893,,,,,,,,,,,,,,,,,,,,,,236.9896308000025,237.00376659999893,237.00376659999893,237.6077851000009,1,0.5914961999951629,,,KM,19,F,R,L,2025-02-27_13h35.39.787,ContrastSen,2024.2.4,60.061827645945066,2025-02-27 13h36.15.145123 +0000,
,,,24,0.1,0.01995262314968881,237.61983310000505,,,,,,,,,,,,,,,,,,,,,,237.60837910001283,237.61983310000505,237.61983310000505,238.22380750000593,1,0.5993904000060866,,,KM,19,F,R,L,2025-02-27_13h35.39.787,ContrastSen,2024.2.4,60.061827645945066,2025-02-27 13h36.15.145123 +0000,
,,,25,0.1,0.01995262314968881,238.23703610000666,,,,,,,,,,,,,,,,,,,,,,238.22413909999887,238.23703610000666,238.23703610000666,239.40626620000694,1,1.152029599994421,,,KM,19,F,R,L,2025-02-27_13h35.39.787,ContrastSen,2024.2.4,60.061827645945066,2025-02-27 13h36.15.145123 +0000,
,,,26,0.1,0.015848931924611145,239.41994370000612,,,,,,,,,,,,,,,,,,,,,,239.40666430001147,239.41994370000612,239.41994370000612,241.52144850000332,1,2.0963902000075905,,,KM,19,F,R,L,2025-02-27_13h35.39.787,ContrastSen,2024.2.4,60.061827645945066,2025-02-27 13h36.15.145123 +0000,
,,,27,0.05,0.015848931924611145,241.53680670000904,,,,,,,,,,,,,,,,,,,,,,241.52177370000572,241.53680670000904,241.53680670000904,242.68972049999866,0,1.1426254999969387,,,KM,19,F,R,L,2025-02-27_13h35.39.787,ContrastSen,2024.2.4,60.061827645945066,2025-02-27 13h36.15.145123 +0000,
,,,28,0.05,0.017782794100389236,242.70348430000013,,,,,,,,,,,,,,,,,,,,,,242.69011490000412,242.70348430000013,242.70348430000013,245.40587210000376,1,2.6931014000001596,,,KM,19,F,R,L,2025-02-27_13h35.39.787,ContrastSen,2024.2.4,60.061827645945066,2025-02-27 13h36.15.145123 +0000,
,,,29,0.05,0.017782794100389236,245.42010650000884,,,,,,,,,,,,,,,,,,,,,,245.40630450000754,245.42010650000884,245.42010650000884,246.12355060000846,1,0.6997292000014568,,,KM,19,F,R,L,2025-02-27_13h35.39.787,ContrastSen,2024.2.4,60.061827645945066,2025-02-27 13h36.15.145123 +0000,
,,,30,0.05,0.017782794100389236,246.13671580000664,,,,,,,,,,,,,,,,,,,,,,246.1238866000058,246.13671580000664,246.13671580000664,246.79002140001103,1,0.6357438999984879,,,KM,19,F,R,L,2025-02-27_13h35.39.787,ContrastSen,2024.2.4,60.061827645945066,2025-02-27 13h36.15.145123 +0000,
,,,31,0.05,0.015848931924611145,246.80339600000298,,,,,,,,,,,,,,,,,,,,,,246.79042140000092,246.80339600000298,246.80339600000298,247.42330590001075,1,0.6133398999954807,,,KM,19,F,R,L,2025-02-27_13h35.39.787,ContrastSen,2024.2.4,60.061827645945066,2025-02-27 13h36.15.145123 +0000,
,,,32,0.05,0.015848931924611145,247.4367870999995,,,,,,,,,,,,,,,,,,,,,,247.42365690000588,247.4367870999995,247.4367870999995,248.50603150000097,1,1.0601635000057286,,,KM,19,F,R,L,2025-02-27_13h35.39.787,ContrastSen,2024.2.4,60.061827645945066,2025-02-27 13h36.15.145123 +0000,
,,,33,0.05,0.015848931924611145,248.52016990000266,,,,,,,,,,,,,,,,,,,,,,248.50644700000703,248.52016990000266,248.52016990000266,250.10542420001002,1,1.5788811999955215,,,KM,19,F,R,L,2025-02-27_13h35.39.787,ContrastSen,2024.2.4,60.061827645945066,2025-02-27 13h36.15.145123 +0000,
,,,34,0.05,0.014125375446227552,250.12020510000002,,,,,,,,,,,,,,,,,,,,,,250.10574540001107,250.12020510000002,250.12020510000002,251.27301970000553,1,1.1351439999998547,,,KM,19,F,R,L,2025-02-27_13h35.39.787,ContrastSen,2024.2.4,60.061827645945066,2025-02-27 13h36.15.145123 +0000,
,,,35,0.05,0.014125375446227552,251.2866658999992,,,,,,,,,,,,,,,,,,,,,,251.27368230000138,251.2866658999992,251.2866658999992,254.10545640000782,1,2.81295659999887,,,KM,19,F,R,L,2025-02-27_13h35.39.787,ContrastSen,2024.2.4,60.061827645945066,2025-02-27 13h36.15.145123 +0000,
,,,36,0.05,0.014125375446227552,254.11956340000324,,,,,,,,,,,,,,,,,,,,,,254.10577500000363,254.11956340000324,254.11956340000324,255.54093750000175,1,1.4179495999997016,,,KM,19,F,R,L,2025-02-27_13h35.39.787,ContrastSen,2024.2.4,60.061827645945066,2025-02-27 13h36.15.145123 +0000,
,,,37,0.05,0.012589254117941682,255.55290790001163,,,,,,,,,,,,,,,,,,,,,,255.54144330001145,255.55290790001163,255.55290790001163,258.07057630000054,1,2.5054192999959923,,,KM,19,F,R,L,2025-02-27_13h35.39.787,ContrastSen,2024.2.4,60.061827645945066,2025-02-27 13h36.15.145123 +0000,
,,,38,0.05,0.012589254117941682,258.08609640000213,,,,,,,,,,,,,,,,,,,,,,258.0707245000085,258.08609640000213,258.08609640000213,259.00423570000567,1,0.9066621999954805,,,KM,19,F,R,L,2025-02-27_13h35.39.787,ContrastSen,2024.2.4,60.061827645945066,2025-02-27 13h36.15.145123 +0000,
,,,39,0.05,0.012589254117941682,259.01978970000346,,,,,,,,,,,,,,,,,,,,,,259.0045160000009,259.01978970000346,259.01978970000346,260.57405850000214,1,1.5380042000033427,,,KM,19,F,R,L,2025-02-27_13h35.39.787,ContrastSen,2024.2.4,60.061827645945066,2025-02-27 13h36.15.145123 +0000,
,,,40,0.05,0.011220184543019644,260.58633970000665,,,,,,,,,,,,,,,,,,,,,,260.5745937000029,260.58633970000665,260.58633970000665,263.0890855000034,0,2.4962854999903357,,,KM,19,F,R,L,2025-02-27_13h35.39.787,ContrastSen,2024.2.4,60.061827645945066,2025-02-27 13h36.15.145123 +0000,
,,,41,0.05,0.012589254117941682,263.1030293000076,,,,,,,,,,,,,,,,,,,,,,263.08950339999865,263.1030293000076,263.1030293000076,267.20659480000904,1,4.097643300003256,,,KM,19,F,R,L,2025-02-27_13h35.39.787,ContrastSen,2024.2.4,60.061827645945066,2025-02-27 13h36.15.145123 +0000,
,,,42,0.05,0.012589254117941682,267.2196485000022,,,,,,,,,,,,,,,,,,,,,,267.206961200005,267.2196485000022,267.2196485000022,268.1882681999996,0,0.9567543000011938,,,KM,19,F,R,L,2025-02-27_13h35.39.787,ContrastSen,2024.2.4,60.061827645945066,2025-02-27 13h36.15.145123 +0000,
,,,43,0.05,0.014125375446227552,268.2029642000125,,,,,,,,,,,,,,,,,,,,,,268.1885612000042,268.2029642000125,268.2029642000125,269.4733825000003,1,1.2612950000038836,,,KM,19,F,R,L,2025-02-27_13h35.39.787,ContrastSen,2024.2.4,60.061827645945066,2025-02-27 13h36.15.145123 +0000,
,,,44,0.05,0.014125375446227552,269.4859681000089,,,,,,,,,,,,,,,,,,,,,,269.47389370000747,269.4859681000089,269.4859681000089,271.07178600000043,1,1.5762047000025632,,,KM,19,F,R,L,2025-02-27_13h35.39.787,ContrastSen,2024.2.4,60.061827645945066,2025-02-27 13h36.15.145123 +0000,
,,,45,0.05,0.014125375446227552,271.08628010000393,,,,,,,,,,,,,,,,,,,,,,271.07216770001105,271.08628010000393,271.08628010000393,271.9736646000092,1,0.8684069000009913,,,KM,19,F,R,L,2025-02-27_13h35.39.787,ContrastSen,2024.2.4,60.061827645945066,2025-02-27 13h36.15.145123 +0000,
,,,46,0.05,0.012589254117941682,271.98616010000114,,,,,,,,,,,,,,,,,,,,,,271.9741616000101,271.98616010000114,271.98616010000114,276.73881470000197,1,4.741108699992765,,,KM,19,F,R,L,2025-02-27_13h35.39.787,ContrastSen,2024.2.4,60.061827645945066,2025-02-27 13h36.15.145123 +0000,
,,,47,0.05,0.012589254117941682,276.75294000000576,,,,,,,,,,,,,,,,,,,,,,276.73922410000523,276.75294000000576,276.75294000000576,280.2713816000032,1,3.5157501000066986,,,KM,19,F,R,L,2025-02-27_13h35.39.787,ContrastSen,2024.2.4,60.061827645945066,2025-02-27 13h36.15.145123 +0000,
,,,48,0.05,0.012589254117941682,280.28573170000163,,,,,,,,,,,,,,,,,,,,,,280.27177340000344,280.28573170000163,280.28573170000163,282.9722829000093,1,2.6718239999900106,,,KM,19,F,R,L,2025-02-27_13h35.39.787,ContrastSen,2024.2.4,60.061827645945066,2025-02-27 13h36.15.145123 +0000,
,,,49,0.05,0.011220184543019644,282.98578350000025,,,,,,,,,,,,,,,,,,,,,,282.9726241000026,282.98578350000025,282.98578350000025,291.8886601999984,1,8.896091000002343,,,KM,19,F,R,L,2025-02-27_13h35.39.787,ContrastSen,2024.2.4,60.061827645945066,2025-02-27 13h36.15.145123 +0000,
,,,50,0.05,0.011220184543019644,291.90243960000225,,,,,,,,,,,,,,,,,,,,,,291.8890917000099,291.90243960000225,291.90243960000225,293.65290850000747,1,1.7411885000037728,,,KM,19,F,R,L,2025-02-27_13h35.39.787,ContrastSen,2024.2.4,60.061827645945066,2025-02-27 13h36.15.145123 +0000,
,,,51,0.05,0.011220184543019644,293.6686775999988,,,,,,,,,,,,,,,,,,,,,,293.65306310000597,293.6686775999988,293.6686775999988,299.7392753000022,1,6.055018700004439,,,KM,19,F,R,L,2025-02-27_13h35.39.787,ContrastSen,2024.2.4,60.061827645945066,2025-02-27 13h36.15.145123 +0000,
,,,52,0.05,0.010000000000000009,299.7523841000075,,,,,,,,,,,,,,,,,,,,,,299.7396871000092,299.7523841000075,299.7523841000075,305.53711580000527,1,5.776666799996747,,,KM,19,F,R,L,2025-02-27_13h35.39.787,ContrastSen,2024.2.4,60.061827645945066,2025-02-27 13h36.15.145123 +0000,
,,,53,0.05,0.010000000000000009,305.552210400012,,,,,,,,,,,,,,,,,,,,,,305.5374729000032,305.552210400012,305.552210400012,306.38849710000795,1,0.8323458999948343,,,KM,19,F,R,L,2025-02-27_13h35.39.787,ContrastSen,2024.2.4,60.061827645945066,2025-02-27 13h36.15.145123 +0000,
,,,54,0.05,0.010000000000000009,306.401858000012,,,,,,,,,,,,,,,,,,,,,,306.3889264000027,306.401858000012,306.401858000012,311.6359172000084,0,5.229776699998183,,,KM,19,F,R,L,2025-02-27_13h35.39.787,ContrastSen,2024.2.4,60.061827645945066,2025-02-27 13h36.15.145123 +0000,
,,,55,0.05,0.011220184543019644,311.6514441000036,,,,,,,,,,,,,,,,,,,,,,311.6361399000016,311.6514441000036,311.6514441000036,315.555391300004,1,3.9013097999995807,,,KM,19,F,R,L,2025-02-27_13h35.39.787,ContrastSen,2024.2.4,60.061827645945066,2025-02-27 13h36.15.145123 +0000,
,,,56,0.05,0.011220184543019644,315.5686585000076,,,,,,,,,,,,,,,,,,,,,,315.5557431000052,315.5686585000076,315.5686585000076,318.73685169999953,1,3.162775899996632,,,KM,19,F,R,L,2025-02-27_13h35.39.787,ContrastSen,2024.2.4,60.061827645945066,2025-02-27 13h36.15.145123 +0000,
,,,57,0.05,0.011220184543019644,318.75186270000995,,,,,,,,,,,,,,,,,,,,,,318.73722540000745,318.75186270000995,318.75186270000995,324.31942759999947,1,5.5632505000103265,,,KM,19,F,R,L,2025-02-27_13h35.39.787,ContrastSen,2024.2.4,60.061827645945066,2025-02-27 13h36.15.145123 +0000,
,,,,,,,,,,,,,,,,,,,,,,,,,,,,,,,,,,324.31951300000947,324.319954999999,KM,19,F,R,L,2025-02-27_13h35.39.787,ContrastSen,2024.2.4,60.061827645945066,2025-02-27 13h36.15.145123 +0000,
