StairLoop.thisTrialN,StairLoop.stepSize,StairLoop.intensity,StairLoop2.thisTrialN,StairLoop2.stepSize,StairLoop2.intensity,thisRow.t,notes,Intro.started,Instructions.started,key_resp_2.started,Intro.stopped,key_resp_2.keys,key_resp_2.rt,key_resp_2.duration,Left.started,Arrow.started,key_resp.started,Left.stopped,StairLoop.response,key_resp.rt,Pre_SecondBlock.started,key_resp_3.started,Change_eye.started,Pre_SecondBlock.stopped,key_resp_3.keys,key_resp_3.rt,key_resp_3.duration,Right.started,Arrow2.started,Key_Resp2.started,Right.stopped,StairLoop2.response,Key_Resp2.rt,End.started,End.stopped,participant,Age,Gender(M/F/N),Dominant Eye(L/R),Handedness(L/R),date,expName,psychopyVersion,frameRate,expStart,
,,,,,,,,0.0027177000883966684,0.006751700071617961,0.006751700071617961,23.130249400041066,right,22.964159599971026,None,,,,,,,,,,,,,,,,,,,,,,LB,19,F,R,R,2025-02-25_13h29.09.258,ContrastSen,2024.2.4,59.970986053393155,2025-02-25 13h29.40.427942 +0000,
0,0.6,1.0,,,,23.134672500076704,,,,,,,,,23.130470600095578,23.134672500076704,23.134672500076704,23.190050100092776,1,0.045346800005063415,,,,,,,,,,,,,,,,LB,19,F,R,R,2025-02-25_13h29.09.258,ContrastSen,2024.2.4,59.970986053393155,2025-02-25 13h29.40.427942 +0000,
1,0.6,0.251188643150958,,,,23.204059400013648,,,,,,,,,23.190605400013737,23.204059400013648,23.204059400013648,24.37302660010755,1,1.1540952998911962,,,,,,,,,,,,,,,,LB,19,F,R,R,2025-02-25_13h29.09.258,ContrastSen,2024.2.4,59.970986053393155,2025-02-25 13h29.40.427942 +0000,
2,0.6,0.06309573444801933,,,,24.38786500005517,,,,,,,,,24.37329460005276,24.38786500005517,24.38786500005517,25.022354200016707,1,0.6334738000296056,,,,,,,,,,,,,,,,LB,19,F,R,R,2025-02-25_13h29.09.258,ContrastSen,2024.2.4,59.970986053393155,2025-02-25 13h29.40.427942 +0000,
3,0.6,0.015848931924611138,,,,25.037662700051442,,,,,,,,,25.022551400004886,25.037662700051442,25.037662700051442,26.806181200081483,1,1.7524073000531644,,,,,,,,,,,,,,,,LB,19,F,R,R,2025-02-25_13h29.09.258,ContrastSen,2024.2.4,59.970986053393155,2025-02-25 13h29.40.427942 +0000,
4,0.4,0.003981071705534973,,,,26.82130470010452,,,,,,,,,26.80649310001172,26.82130470010452,26.82130470010452,28.42248610011302,0,1.5965354999061674,,,,,,,,,,,,,,,,LB,19,F,R,R,2025-02-25_13h29.09.258,ContrastSen,2024.2.4,59.970986053393155,2025-02-25 13h29.40.427942 +0000,
5,0.4,0.010000000000000002,,,,28.43768920004368,,,,,,,,,28.422757400083356,28.43768920004368,28.43768920004368,30.93947210011538,0,2.5003206999972463,,,,,,,,,,,,,,,,LB,19,F,R,R,2025-02-25_13h29.09.258,ContrastSen,2024.2.4,59.970986053393155,2025-02-25 13h29.40.427942 +0000,
6,0.4,0.025118864315095805,,,,30.954408000106923,,,,,,,,,30.939627400017343,30.954408000106923,30.954408000106923,31.87163990002591,1,0.9133704999694601,,,,,,,,,,,,,,,,LB,19,F,R,R,2025-02-25_13h29.09.258,ContrastSen,2024.2.4,59.970986053393155,2025-02-25 13h29.40.427942 +0000,
7,0.4,0.025118864315095805,,,,31.88747230009176,,,,,,,,,31.87178180005867,31.88747230009176,31.88747230009176,32.55571940005757,1,0.6581051000393927,,,,,,,,,,,,,,,,LB,19,F,R,R,2025-02-25_13h29.09.258,ContrastSen,2024.2.4,59.970986053393155,2025-02-25 13h29.40.427942 +0000,
8,0.4,0.025118864315095805,,,,32.57109640003182,,,,,,,,,32.55597700004,32.57109640003182,32.57109640003182,33.638842200045474,1,1.059894400066696,,,,,,,,,,,,,,,,LB,19,F,R,R,2025-02-25_13h29.09.258,ContrastSen,2024.2.4,59.970986053393155,2025-02-25 13h29.40.427942 +0000,
9,0.4,0.010000000000000002,,,,33.65430760011077,,,,,,,,,33.63906970003154,33.65430760011077,33.65430760011077,35.07183350005653,1,1.4139953000703827,,,,,,,,,,,,,,,,LB,19,F,R,R,2025-02-25_13h29.09.258,ContrastSen,2024.2.4,59.970986053393155,2025-02-25 13h29.40.427942 +0000,
10,0.2,0.010000000000000002,,,,35.0875688000815,,,,,,,,,35.07202160009183,35.0875688000815,35.0875688000815,36.05530360003468,0,0.9549014000222087,,,,,,,,,,,,,,,,LB,19,F,R,R,2025-02-25_13h29.09.258,ContrastSen,2024.2.4,59.970986053393155,2025-02-25 13h29.40.427942 +0000,
11,0.2,0.015848931924611138,,,,36.07092940004077,,,,,,,,,36.055495500098914,36.07092940004077,36.07092940004077,37.22187930007931,1,1.1480804000748321,,,,,,,,,,,,,,,,LB,19,F,R,R,2025-02-25_13h29.09.258,ContrastSen,2024.2.4,59.970986053393155,2025-02-25 13h29.40.427942 +0000,
12,0.2,0.015848931924611138,,,,37.23747110005934,,,,,,,,,37.22205570002552,37.23747110005934,37.23747110005934,38.6548542000819,1,1.4004627999383956,,,,,,,,,,,,,,,,LB,19,F,R,R,2025-02-25_13h29.09.258,ContrastSen,2024.2.4,59.970986053393155,2025-02-25 13h29.40.427942 +0000,
13,0.1,0.015848931924611138,,,,38.670786300092004,,,,,,,,,38.65500620007515,38.670786300092004,38.670786300092004,41.839157100068405,1,3.164037000038661,,,,,,,,,,,,,,,,LB,19,F,R,R,2025-02-25_13h29.09.258,ContrastSen,2024.2.4,59.970986053393155,2025-02-25 13h29.40.427942 +0000,
14,0.05,0.012589254117941673,,,,41.85467750008684,,,,,,,,,41.83941010001581,41.85467750008684,41.85467750008684,45.37249730003532,0,3.509718899964355,,,,,,,,,,,,,,,,LB,19,F,R,R,2025-02-25_13h29.09.258,ContrastSen,2024.2.4,59.970986053393155,2025-02-25 13h29.40.427942 +0000,
15,0.05,0.014125375446227544,,,,45.38725120003801,,,,,,,,,45.37279040005524,45.38725120003801,45.38725120003801,46.455496400012635,1,1.0583718999987468,,,,,,,,,,,,,,,,LB,19,F,R,R,2025-02-25_13h29.09.258,ContrastSen,2024.2.4,59.970986053393155,2025-02-25 13h29.40.427942 +0000,
16,0.05,0.014125375446227544,,,,46.470864000031725,,,,,,,,,46.455656100064516,46.470864000031725,46.470864000031725,48.805054700002074,0,2.32837720005773,,,,,,,,,,,,,,,,LB,19,F,R,R,2025-02-25_13h29.09.258,ContrastSen,2024.2.4,59.970986053393155,2025-02-25 13h29.40.427942 +0000,
17,0.05,0.015848931924611134,,,,48.82072900002822,,,,,,,,,48.805263100075535,48.82072900002822,48.82072900002822,49.67171350005083,1,0.8396631999639794,,,,,,,,,,,,,,,,LB,19,F,R,R,2025-02-25_13h29.09.258,ContrastSen,2024.2.4,59.970986053393155,2025-02-25 13h29.40.427942 +0000,
18,0.05,0.015848931924611134,,,,49.68718020000961,,,,,,,,,49.67192110000178,49.68718020000961,49.68718020000961,50.58884460001718,0,0.8882060999749228,,,,,,,,,,,,,,,,LB,19,F,R,R,2025-02-25_13h29.09.258,ContrastSen,2024.2.4,59.970986053393155,2025-02-25 13h29.40.427942 +0000,
19,0.05,0.017782794100389226,,,,50.60414690000471,,,,,,,,,50.588992900098674,50.60414690000471,50.60414690000471,51.18826890003402,1,0.5732171999989077,,,,,,,,,,,,,,,,LB,19,F,R,R,2025-02-25_13h29.09.258,ContrastSen,2024.2.4,59.970986053393155,2025-02-25 13h29.40.427942 +0000,
20,0.05,0.017782794100389226,,,,51.20395710004959,,,,,,,,,51.188457400072366,51.20395710004959,51.20395710004959,52.67159080004785,1,1.4612169000320137,,,,,,,,,,,,,,,,LB,19,F,R,R,2025-02-25_13h29.09.258,ContrastSen,2024.2.4,59.970986053393155,2025-02-25 13h29.40.427942 +0000,
21,0.05,0.017782794100389226,,,,52.68714330007788,,,,,,,,,52.67179830011446,52.68714330007788,52.68714330007788,54.33909670007415,1,1.6408045999705791,,,,,,,,,,,,,,,,LB,19,F,R,R,2025-02-25_13h29.09.258,ContrastSen,2024.2.4,59.970986053393155,2025-02-25 13h29.40.427942 +0000,
22,0.05,0.015848931924611134,,,,54.35404400003608,,,,,,,,,54.33934350009076,54.35404400003608,54.35404400003608,55.37192460009828,0,1.0080456000287086,,,,,,,,,,,,,,,,LB,19,F,R,R,2025-02-25_13h29.09.258,ContrastSen,2024.2.4,59.970986053393155,2025-02-25 13h29.40.427942 +0000,
23,0.05,0.017782794100389226,,,,55.38718700001482,,,,,,,,,55.3721160000423,55.38718700001482,55.38718700001482,56.58858980005607,1,1.18742539989762,,,,,,,,,,,,,,,,LB,19,F,R,R,2025-02-25_13h29.09.258,ContrastSen,2024.2.4,59.970986053393155,2025-02-25 13h29.40.427942 +0000,
24,0.05,0.017782794100389226,,,,56.603856900008395,,,,,,,,,56.588756400044076,56.603856900008395,56.603856900008395,57.32125310006086,1,0.7080567999510095,,,,,,,,,,,,,,,,LB,19,F,R,R,2025-02-25_13h29.09.258,ContrastSen,2024.2.4,59.970986053393155,2025-02-25 13h29.40.427942 +0000,
25,0.05,0.017782794100389226,,,,57.33698830008507,,,,,,,,,57.32140060001984,57.33698830008507,57.33698830008507,58.207138500059955,1,0.8565584999741986,,,,,,,,,,,,,,,,LB,19,F,R,R,2025-02-25_13h29.09.258,ContrastSen,2024.2.4,59.970986053393155,2025-02-25 13h29.40.427942 +0000,
26,0.05,0.015848931924611134,,,,58.220822200062685,,,,,,,,,58.20749870000873,58.220822200062685,58.220822200062685,58.93852790002711,1,0.7059310999466106,,,,,,,,,,,,,,,,LB,19,F,R,R,2025-02-25_13h29.09.258,ContrastSen,2024.2.4,59.970986053393155,2025-02-25 13h29.40.427942 +0000,
27,0.05,0.015848931924611134,,,,58.953806600067765,,,,,,,,,58.93883170001209,58.953806600067765,58.953806600067765,59.6384362000972,1,0.6798851999919862,,,,,,,,,,,,,,,,LB,19,F,R,R,2025-02-25_13h29.09.258,ContrastSen,2024.2.4,59.970986053393155,2025-02-25 13h29.40.427942 +0000,
28,0.05,0.015848931924611134,,,,59.65460900007747,,,,,,,,,59.63866040005814,59.65460900007747,59.65460900007747,60.4419514000183,1,0.7836949999909848,,,,,,,,,,,,,,,,LB,19,F,R,R,2025-02-25_13h29.09.258,ContrastSen,2024.2.4,59.970986053393155,2025-02-25 13h29.40.427942 +0000,
29,0.05,0.014125375446227544,,,,60.45406140002888,,,,,,,,,60.44253960007336,60.45406140002888,60.45406140002888,62.94091380003374,1,2.472403399995528,,,,,,,,,,,,,,,,LB,19,F,R,R,2025-02-25_13h29.09.258,ContrastSen,2024.2.4,59.970986053393155,2025-02-25 13h29.40.427942 +0000,
30,0.05,0.014125375446227544,,,,62.95395360002294,,,,,,,,,62.9414249000838,62.95395360002294,62.95395360002294,66.60813730000518,1,3.651128700003028,,,,,,,,,,,,,,,,LB,19,F,R,R,2025-02-25_13h29.09.258,ContrastSen,2024.2.4,59.970986053393155,2025-02-25 13h29.40.427942 +0000,
31,0.05,0.014125375446227544,,,,66.62106360006146,,,,,,,,,66.6084912000224,66.62106360006146,66.62106360006146,67.77336530003231,1,1.1392496000044048,,,,,,,,,,,,,,,,LB,19,F,R,R,2025-02-25_13h29.09.258,ContrastSen,2024.2.4,59.970986053393155,2025-02-25 13h29.40.427942 +0000,
32,0.05,0.012589254117941673,,,,67.78721130010672,,,,,,,,,67.77378860011231,67.78721130010672,67.78721130010672,69.47138630005065,0,1.6821796000003815,,,,,,,,,,,,,,,,LB,19,F,R,R,2025-02-25_13h29.09.258,ContrastSen,2024.2.4,59.970986053393155,2025-02-25 13h29.40.427942 +0000,
33,0.05,0.014125375446227544,,,,69.48716750007588,,,,,,,,,69.47155880008359,69.48716750007588,69.48716750007588,71.55863250000402,0,2.066418100032024,,,,,,,,,,,,,,,,LB,19,F,R,R,2025-02-25_13h29.09.258,ContrastSen,2024.2.4,59.970986053393155,2025-02-25 13h29.40.427942 +0000,
34,0.05,0.015848931924611134,,,,71.5708124000812,,,,,,,,,71.55907660000958,71.5708124000812,71.5708124000812,73.60727890010457,0,2.020043299999088,,,,,,,,,,,,,,,,LB,19,F,R,R,2025-02-25_13h29.09.258,ContrastSen,2024.2.4,59.970986053393155,2025-02-25 13h29.40.427942 +0000,
35,0.05,0.017782794100389226,,,,73.62087870005053,,,,,,,,,73.60774880007375,73.62087870005053,73.62087870005053,74.37305120006204,1,0.7356187000405043,,,,,,,,,,,,,,,,LB,19,F,R,R,2025-02-25_13h29.09.258,ContrastSen,2024.2.4,59.970986053393155,2025-02-25 13h29.40.427942 +0000,
36,0.05,0.017782794100389226,,,,74.38682540005539,,,,,,,,,74.37346070003696,74.38682540005539,74.38682540005539,75.19060220010579,1,0.7965968999778852,,,,,,,,,,,,,,,,LB,19,F,R,R,2025-02-25_13h29.09.258,ContrastSen,2024.2.4,59.970986053393155,2025-02-25 13h29.40.427942 +0000,
37,0.05,0.017782794100389226,,,,75.20401070010848,,,,,,,,,75.19101290008985,75.20401070010848,75.20401070010848,75.9236160001019,1,0.7173241999698803,,,,,,,,,,,,,,,,LB,19,F,R,R,2025-02-25_13h29.09.258,ContrastSen,2024.2.4,59.970986053393155,2025-02-25 13h29.40.427942 +0000,
38,0.05,0.015848931924611134,,,,75.93730510002933,,,,,,,,,75.92389840004034,75.93730510002933,75.93730510002933,76.70601720002014,1,0.7582111000083387,,,,,,,,,,,,,,,,LB,19,F,R,R,2025-02-25_13h29.09.258,ContrastSen,2024.2.4,59.970986053393155,2025-02-25 13h29.40.427942 +0000,
39,0.05,0.015848931924611134,,,,76.72030900011305,,,,,,,,,76.70641770004295,76.72030900011305,76.72030900011305,77.23792120011058,1,0.5094289000844583,,,,,,,,,,,,,,,,LB,19,F,R,R,2025-02-25_13h29.09.258,ContrastSen,2024.2.4,59.970986053393155,2025-02-25 13h29.40.427942 +0000,
40,0.05,0.015848931924611134,,,,77.25351590011269,,,,,,,,,77.23807820002548,77.25351590011269,77.25351590011269,77.73783800005913,1,0.4711724000517279,,,,,,,,,,,,,,,,LB,19,F,R,R,2025-02-25_13h29.09.258,ContrastSen,2024.2.4,59.970986053393155,2025-02-25 13h29.40.427942 +0000,
41,0.05,0.014125375446227544,,,,77.75349270005245,,,,,,,,,77.73807710001711,77.75349270005245,77.75349270005245,79.55685500008985,1,1.7897494999924675,,,,,,,,,,,,,,,,LB,19,F,R,R,2025-02-25_13h29.09.258,ContrastSen,2024.2.4,59.970986053393155,2025-02-25 13h29.40.427942 +0000,
42,0.05,0.014125375446227544,,,,79.57069200009573,,,,,,,,,79.55727630003821,79.57069200009573,79.57069200009573,81.60548420005944,0,2.0189965999452397,,,,,,,,,,,,,,,,LB,19,F,R,R,2025-02-25_13h29.09.258,ContrastSen,2024.2.4,59.970986053393155,2025-02-25 13h29.40.427942 +0000,
43,0.05,0.015848931924611134,,,,81.62012240011245,,,,,,,,,81.60584660002496,81.62012240011245,81.62012240011245,82.4709047001088,1,0.8440604000352323,,,,,,,,,,,,,,,,LB,19,F,R,R,2025-02-25_13h29.09.258,ContrastSen,2024.2.4,59.970986053393155,2025-02-25 13h29.40.427942 +0000,
44,0.05,0.015848931924611134,,,,82.48660360008944,,,,,,,,,82.4711070000194,82.48660360008944,82.48660360008944,83.32176900003105,1,0.8317473001079634,,,,,,,,,,,,,,,,LB,19,F,R,R,2025-02-25_13h29.09.258,ContrastSen,2024.2.4,59.970986053393155,2025-02-25 13h29.40.427942 +0000,
45,0.05,0.015848931924611134,,,,83.33664790005423,,,,,,,,,83.32205000007525,83.33664790005423,83.33664790005423,84.22291580005549,1,0.8804453000193462,,,,,,,,,,,,,,,,LB,19,F,R,R,2025-02-25_13h29.09.258,ContrastSen,2024.2.4,59.970986053393155,2025-02-25 13h29.40.427942 +0000,
46,0.05,0.014125375446227544,,,,84.23717290000059,,,,,,,,,84.22327060007956,84.23717290000059,84.23717290000059,85.83813120005652,1,1.5937120000598952,,,,,,,,,,,,,,,,LB,19,F,R,R,2025-02-25_13h29.09.258,ContrastSen,2024.2.4,59.970986053393155,2025-02-25 13h29.40.427942 +0000,
47,0.05,0.014125375446227544,,,,85.85343900008593,,,,,,,,,85.83833920001052,85.85343900008593,85.85343900008593,86.87337780010421,1,1.008318500011228,,,,,,,,,,,,,,,,LB,19,F,R,R,2025-02-25_13h29.09.258,ContrastSen,2024.2.4,59.970986053393155,2025-02-25 13h29.40.427942 +0000,
48,0.05,0.014125375446227544,,,,86.88700430002064,,,,,,,,,86.87382070010062,86.88700430002064,86.88700430002064,89.47302400006447,1,2.5715972000034526,,,,,,,,,,,,,,,,LB,19,F,R,R,2025-02-25_13h29.09.258,ContrastSen,2024.2.4,59.970986053393155,2025-02-25 13h29.40.427942 +0000,
49,0.05,0.012589254117941673,,,,89.48704940010794,,,,,,,,,89.47330950002652,89.48704940010794,89.48704940010794,90.25711510004476,0,0.7673866000259295,,,,,,,,,,,,,,,,LB,19,F,R,R,2025-02-25_13h29.09.258,ContrastSen,2024.2.4,59.970986053393155,2025-02-25 13h29.40.427942 +0000,
,,,,,,,,,,,,,,,,,,,,,90.25733730010688,90.2703768000938,90.2703768000938,145.05324480007403,right,54.77100849989802,None,,,,,,,,,LB,19,F,R,R,2025-02-25_13h29.09.258,ContrastSen,2024.2.4,59.970986053393155,2025-02-25 13h29.40.427942 +0000,
,,,0,0.6,1.0,145.06872840004507,,,,,,,,,,,,,,,,,,,,,,145.0535649000667,145.06872840004507,145.06872840004507,145.61958120006602,1,0.5356955999741331,,,LB,19,F,R,R,2025-02-25_13h29.09.258,ContrastSen,2024.2.4,59.970986053393155,2025-02-25 13h29.40.427942 +0000,
,,,1,0.6,0.251188643150958,145.6351936000865,,,,,,,,,,,,,,,,,,,,,,145.61979460006114,145.6351936000865,145.6351936000865,146.07068190001883,1,0.42692469991743565,,,LB,19,F,R,R,2025-02-25_13h29.09.258,ContrastSen,2024.2.4,59.970986053393155,2025-02-25 13h29.40.427942 +0000,
,,,2,0.6,0.06309573444801933,146.08543830004055,,,,,,,,,,,,,,,,,,,,,,146.07106560003012,146.08543830004055,146.08543830004055,146.65452710003592,1,0.5632895000744611,,,LB,19,F,R,R,2025-02-25_13h29.09.258,ContrastSen,2024.2.4,59.970986053393155,2025-02-25 13h29.40.427942 +0000,
,,,3,0.6,0.015848931924611138,146.66917540004943,,,,,,,,,,,,,,,,,,,,,,146.65480640006717,146.66917540004943,146.66917540004943,147.85581760003697,1,1.1749411000637338,,,LB,19,F,R,R,2025-02-25_13h29.09.258,ContrastSen,2024.2.4,59.970986053393155,2025-02-25 13h29.40.427942 +0000,
,,,4,0.4,0.003981071705534973,147.86930480005685,,,,,,,,,,,,,,,,,,,,,,147.85629630007315,147.86930480005685,147.86930480005685,148.4717841000529,0,0.5985559000400826,,,LB,19,F,R,R,2025-02-25_13h29.09.258,ContrastSen,2024.2.4,59.970986053393155,2025-02-25 13h29.40.427942 +0000,
,,,5,0.4,0.010000000000000002,148.48564090009313,,,,,,,,,,,,,,,,,,,,,,148.47217490000185,148.48564090009313,148.48564090009313,149.4068192000268,0,0.9168516000499949,,,LB,19,F,R,R,2025-02-25_13h29.09.258,ContrastSen,2024.2.4,59.970986053393155,2025-02-25 13h29.40.427942 +0000,
,,,6,0.4,0.025118864315095805,149.41886300011538,,,,,,,,,,,,,,,,,,,,,,149.40720580006018,149.41886300011538,149.41886300011538,150.1898177000694,1,0.753749500028789,,,LB,19,F,R,R,2025-02-25_13h29.09.258,ContrastSen,2024.2.4,59.970986053393155,2025-02-25 13h29.40.427942 +0000,
,,,7,0.4,0.025118864315095805,150.2023411000846,,,,,,,,,,,,,,,,,,,,,,150.19036790006794,150.2023411000846,150.2023411000846,150.8555399000179,1,0.6372021000133827,,,LB,19,F,R,R,2025-02-25_13h29.09.258,ContrastSen,2024.2.4,59.970986053393155,2025-02-25 13h29.40.427942 +0000,
,,,8,0.4,0.025118864315095805,150.86907330004033,,,,,,,,,,,,,,,,,,,,,,150.85649080004077,150.86907330004033,150.86907330004033,151.53894500003662,1,0.6513600000180304,,,LB,19,F,R,R,2025-02-25_13h29.09.258,ContrastSen,2024.2.4,59.970986053393155,2025-02-25 13h29.40.427942 +0000,
,,,9,0.2,0.010000000000000002,151.55245930003002,,,,,,,,,,,,,,,,,,,,,,151.53939940000419,151.55245930003002,151.55245930003002,152.9220730001107,0,1.364794500055723,,,LB,19,F,R,R,2025-02-25_13h29.09.258,ContrastSen,2024.2.4,59.970986053393155,2025-02-25 13h29.40.427942 +0000,
,,,10,0.2,0.015848931924611138,152.93561610009056,,,,,,,,,,,,,,,,,,,,,,152.92247820005286,152.93561610009056,152.93561610009056,153.58732450008392,1,0.6443493999540806,,,LB,19,F,R,R,2025-02-25_13h29.09.258,ContrastSen,2024.2.4,59.970986053393155,2025-02-25 13h29.40.427942 +0000,
,,,11,0.2,0.015848931924611138,153.6020699000219,,,,,,,,,,,,,,,,,,,,,,153.58771870005876,153.6020699000219,153.6020699000219,154.6382103000069,1,1.0239840999711305,,,LB,19,F,R,R,2025-02-25_13h29.09.258,ContrastSen,2024.2.4,59.970986053393155,2025-02-25 13h29.40.427942 +0000,
,,,12,0.1,0.015848931924611138,154.6525187001098,,,,,,,,,,,,,,,,,,,,,,154.63851210009307,154.6525187001098,154.6525187001098,155.58751270000357,1,0.93060580000747,,,LB,19,F,R,R,2025-02-25_13h29.09.258,ContrastSen,2024.2.4,59.970986053393155,2025-02-25 13h29.40.427942 +0000,
,,,13,0.1,0.012589254117941673,155.60233930009417,,,,,,,,,,,,,,,,,,,,,,155.5878826000262,155.60233930009417,155.60233930009417,156.83859630010556,1,1.2242607999360189,,,LB,19,F,R,R,2025-02-25_13h29.09.258,ContrastSen,2024.2.4,59.970986053393155,2025-02-25 13h29.40.427942 +0000,
,,,14,0.05,0.012589254117941673,156.85244980000425,,,,,,,,,,,,,,,,,,,,,,156.83899950003251,156.85244980000425,156.85244980000425,157.68751920002978,0,0.8293876999523491,,,LB,19,F,R,R,2025-02-25_13h29.09.258,ContrastSen,2024.2.4,59.970986053393155,2025-02-25 13h29.40.427942 +0000,
,,,15,0.05,0.014125375446227544,157.7020182000706,,,,,,,,,,,,,,,,,,,,,,157.68792130006477,157.7020182000706,157.7020182000706,158.92259000008926,0,1.2162936000386253,,,LB,19,F,R,R,2025-02-25_13h29.09.258,ContrastSen,2024.2.4,59.970986053393155,2025-02-25 13h29.40.427942 +0000,
,,,16,0.05,0.015848931924611134,158.93528850004077,,,,,,,,,,,,,,,,,,,,,,158.92296640004497,158.93528850004077,158.93528850004077,159.45562860008795,0,0.5149205999914557,,,LB,19,F,R,R,2025-02-25_13h29.09.258,ContrastSen,2024.2.4,59.970986053393155,2025-02-25 13h29.40.427942 +0000,
,,,17,0.05,0.017782794100389226,159.46889990009367,,,,,,,,,,,,,,,,,,,,,,159.45616990001872,159.46889990009367,159.46889990009367,160.72236240003258,0,1.245509299915284,,,LB,19,F,R,R,2025-02-25_13h29.09.258,ContrastSen,2024.2.4,59.970986053393155,2025-02-25 13h29.40.427942 +0000,
,,,18,0.05,0.019952623149688792,160.7351812000852,,,,,,,,,,,,,,,,,,,,,,160.72276970010716,160.7351812000852,160.7351812000852,161.50429380009882,1,0.7661988999461755,,,LB,19,F,R,R,2025-02-25_13h29.09.258,ContrastSen,2024.2.4,59.970986053393155,2025-02-25 13h29.40.427942 +0000,
,,,19,0.05,0.019952623149688792,161.51856790005695,,,,,,,,,,,,,,,,,,,,,,161.50467760011088,161.51856790005695,161.51856790005695,162.20376040006522,1,0.67472250002902,,,LB,19,F,R,R,2025-02-25_13h29.09.258,ContrastSen,2024.2.4,59.970986053393155,2025-02-25 13h29.40.427942 +0000,
,,,20,0.05,0.019952623149688792,162.2184926000191,,,,,,,,,,,,,,,,,,,,,,162.20396220008843,162.2184926000191,162.2184926000191,164.22185700002592,1,1.99917980004102,,,LB,19,F,R,R,2025-02-25_13h29.09.258,ContrastSen,2024.2.4,59.970986053393155,2025-02-25 13h29.40.427942 +0000,
,,,21,0.05,0.017782794100389226,164.2353108000243,,,,,,,,,,,,,,,,,,,,,,164.22219320002478,164.2353108000243,164.2353108000243,165.02171940007247,1,0.76818989997264,,,LB,19,F,R,R,2025-02-25_13h29.09.258,ContrastSen,2024.2.4,59.970986053393155,2025-02-25 13h29.40.427942 +0000,
,,,22,0.05,0.017782794100389226,165.03534160007257,,,,,,,,,,,,,,,,,,,,,,165.02214580005966,165.03534160007257,165.03534160007257,166.3055928000249,1,1.2601808999897912,,,LB,19,F,R,R,2025-02-25_13h29.09.258,ContrastSen,2024.2.4,59.970986053393155,2025-02-25 13h29.40.427942 +0000,
,,,23,0.05,0.017782794100389226,166.31892500002868,,,,,,,,,,,,,,,,,,,,,,166.30606340011582,166.31892500002868,166.31892500002868,167.05390520009678,1,0.7216210999758914,,,LB,19,F,R,R,2025-02-25_13h29.09.258,ContrastSen,2024.2.4,59.970986053393155,2025-02-25 13h29.40.427942 +0000,
,,,24,0.05,0.015848931924611134,167.0684311001096,,,,,,,,,,,,,,,,,,,,,,167.05428380006924,167.0684311001096,167.0684311001096,167.8383305000607,1,0.7532767000375316,,,LB,19,F,R,R,2025-02-25_13h29.09.258,ContrastSen,2024.2.4,59.970986053393155,2025-02-25 13h29.40.427942 +0000,
,,,25,0.05,0.015848931924611134,167.8519819000503,,,,,,,,,,,,,,,,,,,,,,167.83866830007173,167.8519819000503,167.8519819000503,168.5876141000772,1,0.7277286000316963,,,LB,19,F,R,R,2025-02-25_13h29.09.258,ContrastSen,2024.2.4,59.970986053393155,2025-02-25 13h29.40.427942 +0000,
,,,26,0.05,0.015848931924611134,168.60204670007806,,,,,,,,,,,,,,,,,,,,,,168.58800490002614,168.60204670007806,168.60204670007806,169.20437430008315,1,0.586798399919644,,,LB,19,F,R,R,2025-02-25_13h29.09.258,ContrastSen,2024.2.4,59.970986053393155,2025-02-25 13h29.40.427942 +0000,
,,,27,0.05,0.014125375446227544,169.21864200010896,,,,,,,,,,,,,,,,,,,,,,169.204775200109,169.21864200010896,169.21864200010896,170.97243340010755,0,1.7488390000071377,,,LB,19,F,R,R,2025-02-25_13h29.09.258,ContrastSen,2024.2.4,59.970986053393155,2025-02-25 13h29.40.427942 +0000,
,,,28,0.05,0.015848931924611134,170.98507270007394,,,,,,,,,,,,,,,,,,,,,,170.97297070000786,170.98507270007394,170.98507270007394,171.7713364000665,0,0.7769545000046492,,,LB,19,F,R,R,2025-02-25_13h29.09.258,ContrastSen,2024.2.4,59.970986053393155,2025-02-25 13h29.40.427942 +0000,
,,,29,0.05,0.017782794100389226,171.78484110010322,,,,,,,,,,,,,,,,,,,,,,171.77182090003043,171.78484110010322,171.78484110010322,173.28718380001374,1,1.497995899990201,,,LB,19,F,R,R,2025-02-25_13h29.09.258,ContrastSen,2024.2.4,59.970986053393155,2025-02-25 13h29.40.427942 +0000,
,,,30,0.05,0.017782794100389226,173.30154470005073,,,,,,,,,,,,,,,,,,,,,,173.28756800002884,173.30154470005073,173.30154470005073,174.5222888001008,1,1.2073420999804512,,,LB,19,F,R,R,2025-02-25_13h29.09.258,ContrastSen,2024.2.4,59.970986053393155,2025-02-25 13h29.40.427942 +0000,
,,,31,0.05,0.017782794100389226,174.5347017000895,,,,,,,,,,,,,,,,,,,,,,174.52280170004815,174.5347017000895,174.5347017000895,175.78559410001617,1,1.2487795999040827,,,LB,19,F,R,R,2025-02-25_13h29.09.258,ContrastSen,2024.2.4,59.970986053393155,2025-02-25 13h29.40.427942 +0000,
,,,32,0.05,0.015848931924611134,175.80141830001958,,,,,,,,,,,,,,,,,,,,,,175.78579960006755,175.80141830001958,175.80141830001958,176.58885160007048,1,0.7845974999945611,,,LB,19,F,R,R,2025-02-25_13h29.09.258,ContrastSen,2024.2.4,59.970986053393155,2025-02-25 13h29.40.427942 +0000,
,,,33,0.05,0.015848931924611134,176.60168910003267,,,,,,,,,,,,,,,,,,,,,,176.5894518001005,176.60168910003267,176.60168910003267,177.639353100094,1,1.032392300083302,,,LB,19,F,R,R,2025-02-25_13h29.09.258,ContrastSen,2024.2.4,59.970986053393155,2025-02-25 13h29.40.427942 +0000,
,,,34,0.05,0.015848931924611134,177.65195420000236,,,,,,,,,,,,,,,,,,,,,,177.63986950006802,177.65195420000236,177.65195420000236,178.5032452000305,1,0.8425854999804869,,,LB,19,F,R,R,2025-02-25_13h29.09.258,ContrastSen,2024.2.4,59.970986053393155,2025-02-25 13h29.40.427942 +0000,
,,,35,0.05,0.014125375446227544,178.5180151000386,,,,,,,,,,,,,,,,,,,,,,178.50352270004805,178.5180151000386,178.5180151000386,181.83777260000352,1,3.316402000025846,,,LB,19,F,R,R,2025-02-25_13h29.09.258,ContrastSen,2024.2.4,59.970986053393155,2025-02-25 13h29.40.427942 +0000,
,,,36,0.05,0.014125375446227544,181.8517672000453,,,,,,,,,,,,,,,,,,,,,,181.8382888000924,181.8517672000453,181.8517672000453,183.28537600010168,1,1.4301052000373602,,,LB,19,F,R,R,2025-02-25_13h29.09.258,ContrastSen,2024.2.4,59.970986053393155,2025-02-25 13h29.40.427942 +0000,
,,,37,0.05,0.014125375446227544,183.30117810005322,,,,,,,,,,,,,,,,,,,,,,183.28553690004628,183.30117810005322,183.30117810005322,185.37080300005618,1,2.0617926999693736,,,LB,19,F,R,R,2025-02-25_13h29.09.258,ContrastSen,2024.2.4,59.970986053393155,2025-02-25 13h29.40.427942 +0000,
,,,38,0.05,0.012589254117941673,185.38462640007492,,,,,,,,,,,,,,,,,,,,,,185.3711916001048,185.38462640007492,185.38462640007492,187.62140260008164,1,2.2275569000048563,,,LB,19,F,R,R,2025-02-25_13h29.09.258,ContrastSen,2024.2.4,59.970986053393155,2025-02-25 13h29.40.427942 +0000,
,,,39,0.05,0.012589254117941673,187.63479300006293,,,,,,,,,,,,,,,,,,,,,,187.6218940000981,187.63479300006293,187.63479300006293,188.53606110007968,0,0.8908842999953777,,,LB,19,F,R,R,2025-02-25_13h29.09.258,ContrastSen,2024.2.4,59.970986053393155,2025-02-25 13h29.40.427942 +0000,
,,,40,0.05,0.014125375446227544,188.550995000056,,,,,,,,,,,,,,,,,,,,,,188.53641140006948,188.550995000056,188.550995000056,189.804502800107,0,1.2404041000409052,,,LB,19,F,R,R,2025-02-25_13h29.09.258,ContrastSen,2024.2.4,59.970986053393155,2025-02-25 13h29.40.427942 +0000,
,,,41,0.05,0.015848931924611134,189.8183382001007,,,,,,,,,,,,,,,,,,,,,,189.8049315001117,189.8183382001007,189.8183382001007,191.50473410007544,1,1.6733652000548318,,,LB,19,F,R,R,2025-02-25_13h29.09.258,ContrastSen,2024.2.4,59.970986053393155,2025-02-25 13h29.40.427942 +0000,
,,,42,0.05,0.015848931924611134,191.51851970003918,,,,,,,,,,,,,,,,,,,,,,191.50522460008506,191.51851970003918,191.51851970003918,192.40400700003374,1,0.8691458000103012,,,LB,19,F,R,R,2025-02-25_13h29.09.258,ContrastSen,2024.2.4,59.970986053393155,2025-02-25 13h29.40.427942 +0000,
,,,43,0.05,0.015848931924611134,192.41821670008358,,,,,,,,,,,,,,,,,,,,,,192.4044268000871,192.41821670008358,192.41821670008358,193.2541619000258,1,0.8316928999265656,,,LB,19,F,R,R,2025-02-25_13h29.09.258,ContrastSen,2024.2.4,59.970986053393155,2025-02-25 13h29.40.427942 +0000,
,,,44,0.05,0.014125375446227544,193.2676894000033,,,,,,,,,,,,,,,,,,,,,,193.25472810002975,193.2676894000033,193.2676894000033,194.505228400114,1,1.2207745999330655,,,LB,19,F,R,R,2025-02-25_13h29.09.258,ContrastSen,2024.2.4,59.970986053393155,2025-02-25 13h29.40.427942 +0000,
,,,45,0.05,0.014125375446227544,194.51793910004199,,,,,,,,,,,,,,,,,,,,,,194.50563280005008,194.51793910004199,194.51793910004199,195.1867264000466,0,0.6667112000286579,,,LB,19,F,R,R,2025-02-25_13h29.09.258,ContrastSen,2024.2.4,59.970986053393155,2025-02-25 13h29.40.427942 +0000,
,,,46,0.05,0.015848931924611134,195.20087130006868,,,,,,,,,,,,,,,,,,,,,,195.18709730007686,195.20087130006868,195.20087130006868,196.1203818001086,1,0.9154659999767318,,,LB,19,F,R,R,2025-02-25_13h29.09.258,ContrastSen,2024.2.4,59.970986053393155,2025-02-25 13h29.40.427942 +0000,
,,,47,0.05,0.015848931924611134,196.13468730007298,,,,,,,,,,,,,,,,,,,,,,196.120776600088,196.13468730007298,196.13468730007298,196.88745400006883,1,0.7428217000560835,,,LB,19,F,R,R,2025-02-25_13h29.09.258,ContrastSen,2024.2.4,59.970986053393155,2025-02-25 13h29.40.427942 +0000,
,,,48,0.05,0.015848931924611134,196.901564000058,,,,,,,,,,,,,,,,,,,,,,196.88792710006237,196.901564000058,196.901564000058,197.57024740008637,0,0.6622124999994412,,,LB,19,F,R,R,2025-02-25_13h29.09.258,ContrastSen,2024.2.4,59.970986053393155,2025-02-25 13h29.40.427942 +0000,
,,,49,0.05,0.017782794100389226,197.58424020011444,,,,,,,,,,,,,,,,,,,,,,197.57062060001772,197.58424020011444,197.58424020011444,198.420526000089,1,0.8202444999478757,,,LB,19,F,R,R,2025-02-25_13h29.09.258,ContrastSen,2024.2.4,59.970986053393155,2025-02-25 13h29.40.427942 +0000,
,,,,,,,,,,,,,,,,,,,,,,,,,,,,,,,,,,198.4207040000474,198.42166480002925,LB,19,F,R,R,2025-02-25_13h29.09.258,ContrastSen,2024.2.4,59.970986053393155,2025-02-25 13h29.40.427942 +0000,
