StairLoop.thisTrialN,StairLoop.stepSize,StairLoop.intensity,StairLoop2.thisTrialN,StairLoop2.stepSize,StairLoop2.intensity,thisRow.t,notes,Intro.started,Instructions.started,key_resp_2.started,Intro.stopped,key_resp_2.keys,key_resp_2.rt,key_resp_2.duration,Left.started,Arrow.started,key_resp.started,Left.stopped,StairLoop.response,key_resp.rt,Pre_SecondBlock.started,key_resp_3.started,Change_eye.started,Pre_SecondBlock.stopped,key_resp_3.keys,key_resp_3.rt,key_resp_3.duration,Right.started,Arrow2.started,Key_Resp2.started,Right.stopped,StairLoop2.response,Key_Resp2.rt,End.started,End.stopped,participant,Age,Gender(M/F/N),Dominant Eye(L/R),Handedness(L/R),date,expName,psychopyVersion,frameRate,expStart,
,,,,,,,,0.002798599999550788,0.0059832999995705904,0.0059832999995705904,15.233671199999662,space,15.205971499999578,None,,,,,,,,,,,,,,,,,,,,,,MK,18,F,R,L,2025-02-26_12h21.44.324,ContrastSen,2024.2.4,59.967461655372944,2025-02-26 12h22.32.884689 +0000,
0,0.6,1.0,,,,15.240549699999974,,,,,,,,,15.234040199999981,15.240549699999974,15.240549699999974,16.564838899999813,1,1.3076490000003105,,,,,,,,,,,,,,,,MK,18,F,R,L,2025-02-26_12h21.44.324,ContrastSen,2024.2.4,59.967461655372944,2025-02-26 12h22.32.884689 +0000,
1,0.6,0.251188643150958,,,,16.57955679999941,,,,,,,,,16.565331799999512,16.57955679999941,16.57955679999941,21.83276339999975,1,5.236358900000596,,,,,,,,,,,,,,,,MK,18,F,R,L,2025-02-26_12h21.44.324,ContrastSen,2024.2.4,59.967461655372944,2025-02-26 12h22.32.884689 +0000,
2,0.6,0.06309573444801933,,,,21.846055899999556,,,,,,,,,21.833190399999694,21.846055899999556,21.846055899999556,23.51320729999952,1,1.6506477000002633,,,,,,,,,,,,,,,,MK,18,F,R,L,2025-02-26_12h21.44.324,ContrastSen,2024.2.4,59.967461655372944,2025-02-26 12h22.32.884689 +0000,
3,0.6,0.015848931924611138,,,,23.528806699999222,,,,,,,,,23.51335839999956,23.528806699999222,23.528806699999222,26.03302899999926,1,2.5015818000001673,,,,,,,,,,,,,,,,MK,18,F,R,L,2025-02-26_12h21.44.324,ContrastSen,2024.2.4,59.967461655372944,2025-02-26 12h22.32.884689 +0000,
4,0.4,0.003981071705534973,,,,26.045777699999235,,,,,,,,,26.033454399999755,26.045777699999235,26.045777699999235,28.41574689999925,0,2.365082899999834,,,,,,,,,,,,,,,,MK,18,F,R,L,2025-02-26_12h21.44.324,ContrastSen,2024.2.4,59.967461655372944,2025-02-26 12h22.32.884689 +0000,
5,0.4,0.010000000000000002,,,,28.429219999999987,,,,,,,,,28.416175999999723,28.429219999999987,28.429219999999987,30.01585309999973,0,1.5706928999998127,,,,,,,,,,,,,,,,MK,18,F,R,L,2025-02-26_12h21.44.324,ContrastSen,2024.2.4,59.967461655372944,2025-02-26 12h22.32.884689 +0000,
6,0.4,0.025118864315095805,,,,30.029354399999647,,,,,,,,,30.01630750000004,30.029354399999647,30.029354399999647,30.682902199999262,1,0.6506489000003057,,,,,,,,,,,,,,,,MK,18,F,R,L,2025-02-26_12h21.44.324,ContrastSen,2024.2.4,59.967461655372944,2025-02-26 12h22.32.884689 +0000,
7,0.4,0.025118864315095805,,,,30.695596799999294,,,,,,,,,30.68331809999927,30.695596799999294,30.695596799999294,31.331000700000004,1,0.631976499999837,,,,,,,,,,,,,,,,MK,18,F,R,L,2025-02-26_12h21.44.324,ContrastSen,2024.2.4,59.967461655372944,2025-02-26 12h22.32.884689 +0000,
8,0.4,0.025118864315095805,,,,31.345519599999534,,,,,,,,,31.33134339999924,31.345519599999534,31.345519599999534,31.9487352999995,1,0.6008338999999978,,,,,,,,,,,,,,,,MK,18,F,R,L,2025-02-26_12h21.44.324,ContrastSen,2024.2.4,59.967461655372944,2025-02-26 12h22.32.884689 +0000,
9,0.4,0.010000000000000002,,,,31.96246279999923,,,,,,,,,31.94912909999948,31.96246279999923,31.96246279999923,34.08163929999955,1,2.114321299999574,,,,,,,,,,,,,,,,MK,18,F,R,L,2025-02-26_12h21.44.324,ContrastSen,2024.2.4,59.967461655372944,2025-02-26 12h22.32.884689 +0000,
10,0.2,0.010000000000000002,,,,34.095571999999265,,,,,,,,,34.08199109999987,34.095571999999265,34.095571999999265,35.36427800000001,0,1.2509516999998596,,,,,,,,,,,,,,,,MK,18,F,R,L,2025-02-26_12h21.44.324,ContrastSen,2024.2.4,59.967461655372944,2025-02-26 12h22.32.884689 +0000,
11,0.2,0.015848931924611138,,,,35.37894950000009,,,,,,,,,35.364631599999484,35.37894950000009,35.37894950000009,36.11582509999971,1,0.7320066000002043,,,,,,,,,,,,,,,,MK,18,F,R,L,2025-02-26_12h21.44.324,ContrastSen,2024.2.4,59.967461655372944,2025-02-26 12h22.32.884689 +0000,
12,0.2,0.015848931924611138,,,,36.12901289999991,,,,,,,,,36.11632719999943,36.12901289999991,36.12901289999991,36.84784209999998,1,0.7158435000001191,,,,,,,,,,,,,,,,MK,18,F,R,L,2025-02-26_12h21.44.324,ContrastSen,2024.2.4,59.967461655372944,2025-02-26 12h22.32.884689 +0000,
13,0.1,0.015848931924611138,,,,36.86211419999927,,,,,,,,,36.84825009999986,36.86211419999927,36.86211419999927,37.77990509999927,1,0.9029047000003629,,,,,,,,,,,,,,,,MK,18,F,R,L,2025-02-26_12h21.44.324,ContrastSen,2024.2.4,59.967461655372944,2025-02-26 12h22.32.884689 +0000,
14,0.1,0.012589254117941673,,,,37.795069599999806,,,,,,,,,37.780232299999625,37.795069599999806,37.795069599999806,38.74584549999963,1,0.9382063000002745,,,,,,,,,,,,,,,,MK,18,F,R,L,2025-02-26_12h21.44.324,ContrastSen,2024.2.4,59.967461655372944,2025-02-26 12h22.32.884689 +0000,
15,0.05,0.012589254117941673,,,,38.761883000000125,,,,,,,,,38.74599219999982,38.761883000000125,38.761883000000125,40.04593939999995,0,1.2746860000006563,,,,,,,,,,,,,,,,MK,18,F,R,L,2025-02-26_12h21.44.324,ContrastSen,2024.2.4,59.967461655372944,2025-02-26 12h22.32.884689 +0000,
16,0.05,0.014125375446227544,,,,40.06168319999961,,,,,,,,,40.04616349999924,40.06168319999961,40.06168319999961,40.77933489999941,1,0.7011988000003839,,,,,,,,,,,,,,,,MK,18,F,R,L,2025-02-26_12h21.44.324,ContrastSen,2024.2.4,59.967461655372944,2025-02-26 12h22.32.884689 +0000,
17,0.05,0.014125375446227544,,,,40.79497039999933,,,,,,,,,40.77968839999994,40.79497039999933,40.79497039999933,42.5656498999997,1,1.7679469000004246,,,,,,,,,,,,,,,,MK,18,F,R,L,2025-02-26_12h21.44.324,ContrastSen,2024.2.4,59.967461655372944,2025-02-26 12h22.32.884689 +0000,
18,0.05,0.014125375446227544,,,,42.5789778999997,,,,,,,,,42.56606190000002,42.5789778999997,42.5789778999997,44.964854699999705,1,2.372755899999902,,,,,,,,,,,,,,,,MK,18,F,R,L,2025-02-26_12h21.44.324,ContrastSen,2024.2.4,59.967461655372944,2025-02-26 12h22.32.884689 +0000,
19,0.05,0.012589254117941673,,,,44.97894079999969,,,,,,,,,44.96523909999996,44.97894079999969,44.97894079999969,45.86635709999973,1,0.8695447000000058,,,,,,,,,,,,,,,,MK,18,F,R,L,2025-02-26_12h21.44.324,ContrastSen,2024.2.4,59.967461655372944,2025-02-26 12h22.32.884689 +0000,
20,0.05,0.012589254117941673,,,,45.87888959999964,,,,,,,,,45.86687119999988,45.87888959999964,45.87888959999964,46.651148699999794,1,0.7679858999999851,,,,,,,,,,,,,,,,MK,18,F,R,L,2025-02-26_12h21.44.324,ContrastSen,2024.2.4,59.967461655372944,2025-02-26 12h22.32.884689 +0000,
21,0.05,0.012589254117941673,,,,46.66210030000002,,,,,,,,,46.651654499999495,46.66210030000002,46.66210030000002,47.26287439999942,1,0.5931420000006256,,,,,,,,,,,,,,,,MK,18,F,R,L,2025-02-26_12h21.44.324,ContrastSen,2024.2.4,59.967461655372944,2025-02-26 12h22.32.884689 +0000,
22,0.05,0.011220184543019636,,,,47.278273799999624,,,,,,,,,47.26305830000001,47.278273799999624,47.278273799999624,49.23053459999937,0,1.9467319000004863,,,,,,,,,,,,,,,,MK,18,F,R,L,2025-02-26_12h21.44.324,ContrastSen,2024.2.4,59.967461655372944,2025-02-26 12h22.32.884689 +0000,
23,0.05,0.012589254117941673,,,,49.245205799999894,,,,,,,,,49.23095310000008,49.245205799999894,49.245205799999894,50.08196520000001,1,0.8308899000003294,,,,,,,,,,,,,,,,MK,18,F,R,L,2025-02-26_12h21.44.324,ContrastSen,2024.2.4,59.967461655372944,2025-02-26 12h22.32.884689 +0000,
24,0.05,0.012589254117941673,,,,50.094990399999915,,,,,,,,,50.08247859999938,50.094990399999915,50.094990399999915,51.09770069999922,1,0.9858346999999412,,,,,,,,,,,,,,,,MK,18,F,R,L,2025-02-26_12h21.44.324,ContrastSen,2024.2.4,59.967461655372944,2025-02-26 12h22.32.884689 +0000,
25,0.05,0.012589254117941673,,,,51.112064899999496,,,,,,,,,51.09817269999985,51.112064899999496,51.112064899999496,53.4960803999993,1,2.380835400000251,,,,,,,,,,,,,,,,MK,18,F,R,L,2025-02-26_12h21.44.324,ContrastSen,2024.2.4,59.967461655372944,2025-02-26 12h22.32.884689 +0000,
26,0.05,0.011220184543019636,,,,53.51150580000012,,,,,,,,,53.49627789999977,53.51150580000012,53.51150580000012,54.32935819999966,1,0.8082954999999856,,,,,,,,,,,,,,,,MK,18,F,R,L,2025-02-26_12h21.44.324,ContrastSen,2024.2.4,59.967461655372944,2025-02-26 12h22.32.884689 +0000,
27,0.05,0.011220184543019636,,,,54.34467359999962,,,,,,,,,54.329541699999936,54.34467359999962,54.34467359999962,54.96422259999963,1,0.6099596999993082,,,,,,,,,,,,,,,,MK,18,F,R,L,2025-02-26_12h21.44.324,ContrastSen,2024.2.4,59.967461655372944,2025-02-26 12h22.32.884689 +0000,
28,0.05,0.011220184543019636,,,,54.978454499999316,,,,,,,,,54.9645974999994,54.978454499999316,54.978454499999316,55.581189199999244,1,0.5957213000001502,,,,,,,,,,,,,,,,MK,18,F,R,L,2025-02-26_12h21.44.324,ContrastSen,2024.2.4,59.967461655372944,2025-02-26 12h22.32.884689 +0000,
29,0.05,0.010000000000000002,,,,55.59489249999933,,,,,,,,,55.58159859999978,55.59489249999933,55.59489249999933,57.10031099999924,1,1.5003334000002724,,,,,,,,,,,,,,,,MK,18,F,R,L,2025-02-26_12h21.44.324,ContrastSen,2024.2.4,59.967461655372944,2025-02-26 12h22.32.884689 +0000,
30,0.05,0.010000000000000002,,,,57.11175389999971,,,,,,,,,57.100829999999405,57.11175389999971,57.11175389999971,57.83082680000007,1,0.7125105000004623,,,,,,,,,,,,,,,,MK,18,F,R,L,2025-02-26_12h21.44.324,ContrastSen,2024.2.4,59.967461655372944,2025-02-26 12h22.32.884689 +0000,
31,0.05,0.010000000000000002,,,,57.84506809999948,,,,,,,,,57.83119309999984,57.84506809999948,57.84506809999948,59.831570599999395,1,1.970175399999789,,,,,,,,,,,,,,,,MK,18,F,R,L,2025-02-26_12h21.44.324,ContrastSen,2024.2.4,59.967461655372944,2025-02-26 12h22.32.884689 +0000,
32,0.05,0.008912509381337457,,,,59.845046499999626,,,,,,,,,59.83207249999941,59.845046499999626,59.845046499999626,61.73147349999999,0,1.8787557999994533,,,,,,,,,,,,,,,,MK,18,F,R,L,2025-02-26_12h21.44.324,ContrastSen,2024.2.4,59.967461655372944,2025-02-26 12h22.32.884689 +0000,
33,0.05,0.010000000000000002,,,,61.7451403999994,,,,,,,,,61.73185959999955,61.7451403999994,61.7451403999994,62.81687069999953,1,1.0662817999991603,,,,,,,,,,,,,,,,MK,18,F,R,L,2025-02-26_12h21.44.324,ContrastSen,2024.2.4,59.967461655372944,2025-02-26 12h22.32.884689 +0000,
34,0.05,0.010000000000000002,,,,62.828409899999315,,,,,,,,,62.81733189999977,62.828409899999315,62.828409899999315,63.781551499999296,0,0.9357743999999002,,,,,,,,,,,,,,,,MK,18,F,R,L,2025-02-26_12h21.44.324,ContrastSen,2024.2.4,59.967461655372944,2025-02-26 12h22.32.884689 +0000,
35,0.05,0.011220184543019636,,,,63.79488489999949,,,,,,,,,63.78193769999962,63.79488489999949,63.79488489999949,65.03038809999998,1,1.218769300000531,,,,,,,,,,,,,,,,MK,18,F,R,L,2025-02-26_12h21.44.324,ContrastSen,2024.2.4,59.967461655372944,2025-02-26 12h22.32.884689 +0000,
36,0.05,0.011220184543019636,,,,65.04498779999994,,,,,,,,,65.0308744999993,65.04498779999994,65.04498779999994,66.11482399999932,1,1.0520703000001959,,,,,,,,,,,,,,,,MK,18,F,R,L,2025-02-26_12h21.44.324,ContrastSen,2024.2.4,59.967461655372944,2025-02-26 12h22.32.884689 +0000,
37,0.05,0.011220184543019636,,,,66.12843689999954,,,,,,,,,66.11526400000002,66.12843689999954,66.12843689999954,67.14779959999942,1,1.0025566999993316,,,,,,,,,,,,,,,,MK,18,F,R,L,2025-02-26_12h21.44.324,ContrastSen,2024.2.4,59.967461655372944,2025-02-26 12h22.32.884689 +0000,
38,0.05,0.010000000000000002,,,,67.16162110000005,,,,,,,,,67.14838369999961,67.16162110000005,67.16162110000005,67.98164869999982,1,0.8040062999998554,,,,,,,,,,,,,,,,MK,18,F,R,L,2025-02-26_12h21.44.324,ContrastSen,2024.2.4,59.967461655372944,2025-02-26 12h22.32.884689 +0000,
39,0.05,0.010000000000000002,,,,67.99483559999953,,,,,,,,,67.9822992999998,67.99483559999953,67.99483559999953,68.96362169999975,1,0.9657361999998102,,,,,,,,,,,,,,,,MK,18,F,R,L,2025-02-26_12h21.44.324,ContrastSen,2024.2.4,59.967461655372944,2025-02-26 12h22.32.884689 +0000,
40,0.05,0.010000000000000002,,,,68.97806069999933,,,,,,,,,68.96396559999994,68.97806069999933,68.97806069999933,70.26470079999945,0,1.2827855999994426,,,,,,,,,,,,,,,,MK,18,F,R,L,2025-02-26_12h21.44.324,ContrastSen,2024.2.4,59.967461655372944,2025-02-26 12h22.32.884689 +0000,
41,0.05,0.011220184543019636,,,,70.27845559999969,,,,,,,,,70.26508459999968,70.27845559999969,70.27845559999969,70.7642507999999,0,0.4762104999999792,,,,,,,,,,,,,,,,MK,18,F,R,L,2025-02-26_12h21.44.324,ContrastSen,2024.2.4,59.967461655372944,2025-02-26 12h22.32.884689 +0000,
42,0.05,0.012589254117941673,,,,70.7783800999996,,,,,,,,,70.76466459999938,70.7783800999996,70.7783800999996,71.54834369999935,1,0.7557946999995693,,,,,,,,,,,,,,,,MK,18,F,R,L,2025-02-26_12h21.44.324,ContrastSen,2024.2.4,59.967461655372944,2025-02-26 12h22.32.884689 +0000,
43,0.05,0.012589254117941673,,,,71.56167759999971,,,,,,,,,71.54883239999981,71.56167759999971,71.56167759999971,72.49768129999939,1,0.9291800000000876,,,,,,,,,,,,,,,,MK,18,F,R,L,2025-02-26_12h21.44.324,ContrastSen,2024.2.4,59.967461655372944,2025-02-26 12h22.32.884689 +0000,
44,0.05,0.012589254117941673,,,,72.51136289999977,,,,,,,,,72.49809610000011,72.51136289999977,72.51136289999977,73.51390639999954,1,0.9918017999998483,,,,,,,,,,,,,,,,MK,18,F,R,L,2025-02-26_12h21.44.324,ContrastSen,2024.2.4,59.967461655372944,2025-02-26 12h22.32.884689 +0000,
45,0.05,0.011220184543019636,,,,73.52849909999986,,,,,,,,,73.51413239999965,73.52849909999986,73.52849909999986,74.3968875999999,1,0.8612967000008211,,,,,,,,,,,,,,,,MK,18,F,R,L,2025-02-26_12h21.44.324,ContrastSen,2024.2.4,59.967461655372944,2025-02-26 12h22.32.884689 +0000,
46,0.05,0.011220184543019636,,,,74.41108309999981,,,,,,,,,74.39719849999983,74.41108309999981,74.41108309999981,75.36350429999948,0,0.9423016999999163,,,,,,,,,,,,,,,,MK,18,F,R,L,2025-02-26_12h21.44.324,ContrastSen,2024.2.4,59.967461655372944,2025-02-26 12h22.32.884689 +0000,
47,0.05,0.012589254117941673,,,,75.37811629999942,,,,,,,,,75.36381979999987,75.37811629999942,75.37811629999942,76.19748139999956,1,0.8019156999998813,,,,,,,,,,,,,,,,MK,18,F,R,L,2025-02-26_12h21.44.324,ContrastSen,2024.2.4,59.967461655372944,2025-02-26 12h22.32.884689 +0000,
48,0.05,0.012589254117941673,,,,76.21152159999929,,,,,,,,,76.19779519999975,76.21152159999929,76.21152159999929,76.79632450000008,1,0.5709232999997766,,,,,,,,,,,,,,,,MK,18,F,R,L,2025-02-26_12h21.44.324,ContrastSen,2024.2.4,59.967461655372944,2025-02-26 12h22.32.884689 +0000,
49,0.05,0.012589254117941673,,,,76.81145529999958,,,,,,,,,76.79659859999992,76.81145529999958,76.81145529999958,78.68163449999975,1,1.8667542000002868,,,,,,,,,,,,,,,,MK,18,F,R,L,2025-02-26_12h21.44.324,ContrastSen,2024.2.4,59.967461655372944,2025-02-26 12h22.32.884689 +0000,
,,,,,,,,,,,,,,,,,,,,,78.6818534999993,78.69451019999997,78.69451019999997,83.79606839999997,space,5.084495399999469,None,,,,,,,,,MK,18,F,R,L,2025-02-26_12h21.44.324,ContrastSen,2024.2.4,59.967461655372944,2025-02-26 12h22.32.884689 +0000,
,,,0,0.6,1.0,83.8109743999994,,,,,,,,,,,,,,,,,,,,,,83.79635009999947,83.8109743999994,83.8109743999994,85.09742499999993,1,1.2807163999996192,,,MK,18,F,R,L,2025-02-26_12h21.44.324,ContrastSen,2024.2.4,59.967461655372944,2025-02-26 12h22.32.884689 +0000,
,,,1,0.6,0.251188643150958,85.11136889999943,,,,,,,,,,,,,,,,,,,,,,85.09782059999998,85.11136889999943,85.11136889999943,85.81407609999951,1,0.6935634000001301,,,MK,18,F,R,L,2025-02-26_12h21.44.324,ContrastSen,2024.2.4,59.967461655372944,2025-02-26 12h22.32.884689 +0000,
,,,2,0.6,0.06309573444801933,85.82802790000005,,,,,,,,,,,,,,,,,,,,,,85.8144615000001,85.82802790000005,85.82802790000005,86.96499979999953,1,1.1220313000003443,,,MK,18,F,R,L,2025-02-26_12h21.44.324,ContrastSen,2024.2.4,59.967461655372944,2025-02-26 12h22.32.884689 +0000,
,,,3,0.4,0.015848931924611138,86.9779940999997,,,,,,,,,,,,,,,,,,,,,,86.96546859999944,86.9779940999997,86.9779940999997,88.14715720000004,0,1.1607991999999285,,,MK,18,F,R,L,2025-02-26_12h21.44.324,ContrastSen,2024.2.4,59.967461655372944,2025-02-26 12h22.32.884689 +0000,
,,,4,0.4,0.039810717055349734,88.1610686999993,,,,,,,,,,,,,,,,,,,,,,88.14758259999962,88.1610686999993,88.1610686999993,89.14762319999954,1,0.9824127000001681,,,MK,18,F,R,L,2025-02-26_12h21.44.324,ContrastSen,2024.2.4,59.967461655372944,2025-02-26 12h22.32.884689 +0000,
,,,5,0.4,0.039810717055349734,89.16120289999981,,,,,,,,,,,,,,,,,,,,,,89.14792669999952,89.16120289999981,89.16120289999981,89.8805956999995,1,0.7092461000002004,,,MK,18,F,R,L,2025-02-26_12h21.44.324,ContrastSen,2024.2.4,59.967461655372944,2025-02-26 12h22.32.884689 +0000,
,,,6,0.4,0.039810717055349734,89.89426000000003,,,,,,,,,,,,,,,,,,,,,,89.88092499999948,89.89426000000003,89.89426000000003,90.71495649999997,1,0.8041828999994323,,,MK,18,F,R,L,2025-02-26_12h21.44.324,ContrastSen,2024.2.4,59.967461655372944,2025-02-26 12h22.32.884689 +0000,
,,,7,0.4,0.015848931924611138,90.72794009999961,,,,,,,,,,,,,,,,,,,,,,90.71536109999943,90.72794009999961,90.72794009999961,93.03056349999952,1,2.2958471000001737,,,MK,18,F,R,L,2025-02-26_12h21.44.324,ContrastSen,2024.2.4,59.967461655372944,2025-02-26 12h22.32.884689 +0000,
,,,8,0.4,0.015848931924611138,93.0443736999996,,,,,,,,,,,,,,,,,,,,,,93.03098229999978,93.0443736999996,93.0443736999996,95.49682690000009,1,2.4371870999993916,,,MK,18,F,R,L,2025-02-26_12h21.44.324,ContrastSen,2024.2.4,59.967461655372944,2025-02-26 12h22.32.884689 +0000,
,,,9,0.2,0.015848931924611138,95.51097289999962,,,,,,,,,,,,,,,,,,,,,,95.49724549999974,95.51097289999962,95.51097289999962,98.71385199999986,0,3.1909003000000666,,,MK,18,F,R,L,2025-02-26_12h21.44.324,ContrastSen,2024.2.4,59.967461655372944,2025-02-26 12h22.32.884689 +0000,
,,,10,0.2,0.025118864315095808,98.72776290000002,,,,,,,,,,,,,,,,,,,,,,98.71435459999975,98.72776290000002,98.72776290000002,99.89773659999992,1,1.1565043999999034,,,MK,18,F,R,L,2025-02-26_12h21.44.324,ContrastSen,2024.2.4,59.967461655372944,2025-02-26 12h22.32.884689 +0000,
,,,11,0.2,0.025118864315095808,99.9110055000001,,,,,,,,,,,,,,,,,,,,,,99.89813879999929,99.9110055000001,99.9110055000001,100.99776969999948,1,1.078313299999536,,,MK,18,F,R,L,2025-02-26_12h21.44.324,ContrastSen,2024.2.4,59.967461655372944,2025-02-26 12h22.32.884689 +0000,
,,,12,0.1,0.025118864315095808,101.01090719999956,,,,,,,,,,,,,,,,,,,,,,100.99815249999938,101.01090719999956,101.01090719999956,102.21132589999979,1,1.1900105999993684,,,MK,18,F,R,L,2025-02-26_12h21.44.324,ContrastSen,2024.2.4,59.967461655372944,2025-02-26 12h22.32.884689 +0000,
,,,13,0.1,0.019952623149688802,102.22726909999983,,,,,,,,,,,,,,,,,,,,,,102.21152789999996,102.22726909999983,102.22726909999983,104.63041189999967,1,2.394263399999545,,,MK,18,F,R,L,2025-02-26_12h21.44.324,ContrastSen,2024.2.4,59.967461655372944,2025-02-26 12h22.32.884689 +0000,
,,,14,0.1,0.019952623149688802,104.64414129999932,,,,,,,,,,,,,,,,,,,,,,104.63077399999929,104.64414129999932,104.64414129999932,105.48107559999971,1,0.8320600999995804,,,MK,18,F,R,L,2025-02-26_12h21.44.324,ContrastSen,2024.2.4,59.967461655372944,2025-02-26 12h22.32.884689 +0000,
,,,15,0.05,0.019952623149688802,105.49399989999984,,,,,,,,,,,,,,,,,,,,,,105.48146479999923,105.49399989999984,105.49399989999984,107.61147699999947,0,2.1110312000000704,,,MK,18,F,R,L,2025-02-26_12h21.44.324,ContrastSen,2024.2.4,59.967461655372944,2025-02-26 12h22.32.884689 +0000,
,,,16,0.05,0.022387211385683402,107.6269373999994,,,,,,,,,,,,,,,,,,,,,,107.61166629999934,107.6269373999994,107.6269373999994,108.41428039999937,1,0.7825893999997788,,,MK,18,F,R,L,2025-02-26_12h21.44.324,ContrastSen,2024.2.4,59.967461655372944,2025-02-26 12h22.32.884689 +0000,
,,,17,0.05,0.022387211385683402,108.42714100000012,,,,,,,,,,,,,,,,,,,,,,108.4147039999998,108.42714100000012,108.42714100000012,108.96393649999936,1,0.5325743000003058,,,MK,18,F,R,L,2025-02-26_12h21.44.324,ContrastSen,2024.2.4,59.967461655372944,2025-02-26 12h22.32.884689 +0000,
,,,18,0.05,0.022387211385683402,108.9774682999996,,,,,,,,,,,,,,,,,,,,,,108.964336,108.9774682999996,108.9774682999996,109.62897739999971,1,0.6350207000004957,,,MK,18,F,R,L,2025-02-26_12h21.44.324,ContrastSen,2024.2.4,59.967461655372944,2025-02-26 12h22.32.884689 +0000,
,,,19,0.05,0.019952623149688802,109.64395289999993,,,,,,,,,,,,,,,,,,,,,,109.62937879999936,109.64395289999993,109.64395289999993,110.24592630000006,1,0.5854405999998562,,,MK,18,F,R,L,2025-02-26_12h21.44.324,ContrastSen,2024.2.4,59.967461655372944,2025-02-26 12h22.32.884689 +0000,
,,,20,0.05,0.019952623149688802,110.26097279999976,,,,,,,,,,,,,,,,,,,,,,110.24630129999969,110.26097279999976,110.26097279999976,110.84523229999922,1,0.5776459999997314,,,MK,18,F,R,L,2025-02-26_12h21.44.324,ContrastSen,2024.2.4,59.967461655372944,2025-02-26 12h22.32.884689 +0000,
,,,21,0.05,0.019952623149688802,110.86032290000003,,,,,,,,,,,,,,,,,,,,,,110.8455602999993,110.86032290000003,110.86032290000003,112.33020519999991,1,1.4554963999999018,,,MK,18,F,R,L,2025-02-26_12h21.44.324,ContrastSen,2024.2.4,59.967461655372944,2025-02-26 12h22.32.884689 +0000,
,,,22,0.05,0.017782794100389236,112.34388129999934,,,,,,,,,,,,,,,,,,,,,,112.33060189999924,112.34388129999934,112.34388129999934,114.36154910000005,1,2.012561900000037,,,MK,18,F,R,L,2025-02-26_12h21.44.324,ContrastSen,2024.2.4,59.967461655372944,2025-02-26 12h22.32.884689 +0000,
,,,23,0.05,0.017782794100389236,114.3769769999999,,,,,,,,,,,,,,,,,,,,,,114.36171029999969,114.3769769999999,114.3769769999999,115.19773059999989,1,0.8064464999997654,,,MK,18,F,R,L,2025-02-26_12h21.44.324,ContrastSen,2024.2.4,59.967461655372944,2025-02-26 12h22.32.884689 +0000,
,,,24,0.05,0.017782794100389236,115.21070999999938,,,,,,,,,,,,,,,,,,,,,,115.19830300000012,115.21070999999938,115.21070999999938,116.07793009999932,1,0.8567301000002772,,,MK,18,F,R,L,2025-02-26_12h21.44.324,ContrastSen,2024.2.4,59.967461655372944,2025-02-26 12h22.32.884689 +0000,
,,,25,0.05,0.015848931924611145,116.09350979999999,,,,,,,,,,,,,,,,,,,,,,116.07809329999964,116.09350979999999,116.09350979999999,116.8311948999999,1,0.7352377999995952,,,MK,18,F,R,L,2025-02-26_12h21.44.324,ContrastSen,2024.2.4,59.967461655372944,2025-02-26 12h22.32.884689 +0000,
,,,26,0.05,0.015848931924611145,116.8435757999996,,,,,,,,,,,,,,,,,,,,,,116.83158989999993,116.8435757999996,116.8435757999996,118.23152459999983,0,1.3850610999998025,,,MK,18,F,R,L,2025-02-26_12h21.44.324,ContrastSen,2024.2.4,59.967461655372944,2025-02-26 12h22.32.884689 +0000,
,,,27,0.05,0.017782794100389236,118.24372299999959,,,,,,,,,,,,,,,,,,,,,,118.23198929999944,118.24372299999959,118.24372299999959,118.99693049999951,1,0.7489060000007157,,,MK,18,F,R,L,2025-02-26_12h21.44.324,ContrastSen,2024.2.4,59.967461655372944,2025-02-26 12h22.32.884689 +0000,
,,,28,0.05,0.017782794100389236,119.01056919999974,,,,,,,,,,,,,,,,,,,,,,118.99740560000009,119.01056919999974,119.01056919999974,119.62994249999974,1,0.6124103000001924,,,MK,18,F,R,L,2025-02-26_12h21.44.324,ContrastSen,2024.2.4,59.967461655372944,2025-02-26 12h22.32.884689 +0000,
,,,29,0.05,0.017782794100389236,119.64366429999973,,,,,,,,,,,,,,,,,,,,,,119.63032329999987,119.64366429999973,119.64366429999973,120.44636589999936,1,0.7932390999994823,,,MK,18,F,R,L,2025-02-26_12h21.44.324,ContrastSen,2024.2.4,59.967461655372944,2025-02-26 12h22.32.884689 +0000,
,,,30,0.05,0.015848931924611145,120.4606088999999,,,,,,,,,,,,,,,,,,,,,,120.44686909999928,120.4606088999999,120.4606088999999,122.9303147999999,0,2.4584671000002345,,,MK,18,F,R,L,2025-02-26_12h21.44.324,ContrastSen,2024.2.4,59.967461655372944,2025-02-26 12h22.32.884689 +0000,
,,,31,0.05,0.017782794100389236,122.94357799999943,,,,,,,,,,,,,,,,,,,,,,122.93084809999982,122.94357799999943,122.94357799999943,123.79708239999945,1,0.8490621999999348,,,MK,18,F,R,L,2025-02-26_12h21.44.324,ContrastSen,2024.2.4,59.967461655372944,2025-02-26 12h22.32.884689 +0000,
,,,32,0.05,0.017782794100389236,123.81043849999969,,,,,,,,,,,,,,,,,,,,,,123.79752860000008,123.81043849999969,123.81043849999969,126.0128240999993,1,2.197189900000012,,,MK,18,F,R,L,2025-02-26_12h21.44.324,ContrastSen,2024.2.4,59.967461655372944,2025-02-26 12h22.32.884689 +0000,
,,,33,0.05,0.017782794100389236,126.02715649999936,,,,,,,,,,,,,,,,,,,,,,126.0131265,126.02715649999936,126.02715649999936,126.69642810000005,1,0.6667580000002999,,,MK,18,F,R,L,2025-02-26_12h21.44.324,ContrastSen,2024.2.4,59.967461655372944,2025-02-26 12h22.32.884689 +0000,
,,,34,0.05,0.015848931924611145,126.71018159999949,,,,,,,,,,,,,,,,,,,,,,126.69696049999948,126.71018159999949,126.71018159999949,127.2807985999998,1,0.5626383999997415,,,MK,18,F,R,L,2025-02-26_12h21.44.324,ContrastSen,2024.2.4,59.967461655372944,2025-02-26 12h22.32.884689 +0000,
,,,35,0.05,0.015848931924611145,127.29346319999968,,,,,,,,,,,,,,,,,,,,,,127.28126819999943,127.29346319999968,127.29346319999968,128.03083160000006,1,0.7313830000002781,,,MK,18,F,R,L,2025-02-26_12h21.44.324,ContrastSen,2024.2.4,59.967461655372944,2025-02-26 12h22.32.884689 +0000,
,,,36,0.05,0.015848931924611145,128.04351829999996,,,,,,,,,,,,,,,,,,,,,,128.03133869999965,128.04351829999996,128.04351829999996,128.74625749999996,1,0.6879140999999436,,,MK,18,F,R,L,2025-02-26_12h21.44.324,ContrastSen,2024.2.4,59.967461655372944,2025-02-26 12h22.32.884689 +0000,
,,,37,0.05,0.014125375446227552,128.7605483999996,,,,,,,,,,,,,,,,,,,,,,128.7466534999994,128.7605483999996,128.7605483999996,130.28035589999945,0,1.5111875000002328,,,MK,18,F,R,L,2025-02-26_12h21.44.324,ContrastSen,2024.2.4,59.967461655372944,2025-02-26 12h22.32.884689 +0000,
,,,38,0.05,0.015848931924611145,130.29361919999974,,,,,,,,,,,,,,,,,,,,,,130.28084779999972,130.29361919999974,130.29361919999974,130.89718939999966,1,0.5993308000006436,,,MK,18,F,R,L,2025-02-26_12h21.44.324,ContrastSen,2024.2.4,59.967461655372944,2025-02-26 12h22.32.884689 +0000,
,,,39,0.05,0.015848931924611145,130.91001329999926,,,,,,,,,,,,,,,,,,,,,,130.89761049999925,130.91001329999926,130.91001329999926,132.5140075999998,1,1.5994084000003568,,,MK,18,F,R,L,2025-02-26_12h21.44.324,ContrastSen,2024.2.4,59.967461655372944,2025-02-26 12h22.32.884689 +0000,
,,,40,0.05,0.015848931924611145,132.5270142999998,,,,,,,,,,,,,,,,,,,,,,132.51449969999976,132.5270142999998,132.5270142999998,133.3467256999993,1,0.8108376000000135,,,MK,18,F,R,L,2025-02-26_12h21.44.324,ContrastSen,2024.2.4,59.967461655372944,2025-02-26 12h22.32.884689 +0000,
,,,41,0.05,0.014125375446227552,133.36027549999926,,,,,,,,,,,,,,,,,,,,,,133.34713949999968,133.36027549999926,133.36027549999926,134.14606729999923,1,0.7746906000002127,,,MK,18,F,R,L,2025-02-26_12h21.44.324,ContrastSen,2024.2.4,59.967461655372944,2025-02-26 12h22.32.884689 +0000,
,,,42,0.05,0.014125375446227552,134.1602843999999,,,,,,,,,,,,,,,,,,,,,,134.14645589999964,134.1602843999999,134.1602843999999,135.42965519999962,0,1.2625437999995484,,,MK,18,F,R,L,2025-02-26_12h21.44.324,ContrastSen,2024.2.4,59.967461655372944,2025-02-26 12h22.32.884689 +0000,
,,,43,0.05,0.015848931924611145,135.44331919999968,,,,,,,,,,,,,,,,,,,,,,135.43008529999952,135.44331919999968,135.44331919999968,136.2610420000001,1,0.8021323000002667,,,MK,18,F,R,L,2025-02-26_12h21.44.324,ContrastSen,2024.2.4,59.967461655372944,2025-02-26 12h22.32.884689 +0000,
,,,44,0.05,0.015848931924611145,136.27622989999963,,,,,,,,,,,,,,,,,,,,,,136.26126659999954,136.27622989999963,136.27622989999963,136.91124450000007,1,0.6257709999999861,,,MK,18,F,R,L,2025-02-26_12h21.44.324,ContrastSen,2024.2.4,59.967461655372944,2025-02-26 12h22.32.884689 +0000,
,,,45,0.05,0.015848931924611145,136.92641000000003,,,,,,,,,,,,,,,,,,,,,,136.91151009999976,136.92641000000003,136.92641000000003,137.49631389999922,1,0.5653806000000259,,,MK,18,F,R,L,2025-02-26_12h21.44.324,ContrastSen,2024.2.4,59.967461655372944,2025-02-26 12h22.32.884689 +0000,
,,,46,0.05,0.014125375446227552,137.51012529999934,,,,,,,,,,,,,,,,,,,,,,137.49682609999945,137.51012529999934,137.51012529999934,138.74611849999928,0,1.227423600000293,,,MK,18,F,R,L,2025-02-26_12h21.44.324,ContrastSen,2024.2.4,59.967461655372944,2025-02-26 12h22.32.884689 +0000,
,,,47,0.05,0.015848931924611145,138.76006309999957,,,,,,,,,,,,,,,,,,,,,,138.74654849999934,138.76006309999957,138.76006309999957,139.51273779999974,1,0.7457143000001452,,,MK,18,F,R,L,2025-02-26_12h21.44.324,ContrastSen,2024.2.4,59.967461655372944,2025-02-26 12h22.32.884689 +0000,
,,,48,0.05,0.015848931924611145,139.5267350999993,,,,,,,,,,,,,,,,,,,,,,139.51311319999968,139.5267350999993,139.5267350999993,140.12979709999945,1,0.5886206999994101,,,MK,18,F,R,L,2025-02-26_12h21.44.324,ContrastSen,2024.2.4,59.967461655372944,2025-02-26 12h22.32.884689 +0000,
,,,49,0.05,0.015848931924611145,140.14318409999942,,,,,,,,,,,,,,,,,,,,,,140.13021649999973,140.14318409999942,140.14318409999942,140.73188129999926,1,0.5853534999996555,,,MK,18,F,R,L,2025-02-26_12h21.44.324,ContrastSen,2024.2.4,59.967461655372944,2025-02-26 12h22.32.884689 +0000,
,,,,,,,,,,,,,,,,,,,,,,,,,,,,,,,,,,140.7321635999997,140.73321159999978,MK,18,F,R,L,2025-02-26_12h21.44.324,ContrastSen,2024.2.4,59.967461655372944,2025-02-26 12h22.32.884689 +0000,
