StairLoop.thisTrialN,StairLoop.stepSize,StairLoop.intensity,StairLoop2.thisTrialN,StairLoop2.stepSize,StairLoop2.intensity,thisRow.t,notes,Intro.started,Instructions.started,key_resp_2.started,Intro.stopped,key_resp_2.keys,key_resp_2.rt,key_resp_2.duration,Left.started,Arrow.started,key_resp.started,Left.stopped,StairLoop.response,key_resp.rt,Pre_SecondBlock.started,key_resp_3.started,Change_eye.started,Pre_SecondBlock.stopped,key_resp_3.keys,key_resp_3.rt,key_resp_3.duration,Right.started,Arrow2.started,Key_Resp2.started,Right.stopped,StairLoop2.response,Key_Resp2.rt,End.started,End.stopped,participant,Age,Gender(M/F/N),Dominant Eye(L/R),Handedness(L/R),date,expName,psychopyVersion,frameRate,expStart,
,,,,,,,,0.0031213000183925033,0.006499400013126433,0.006499400013126433,25.625833300000522,right,25.46789189998526,None,,,,,,,,,,,,,,,,,,,,,,MS,25,M,R,R,2025-02-11_13h04.13.677,ContrastSen,2024.2.4,60.02210014484237,2025-02-11 13h05.19.652949 +0000,
0,0.6,1.0,,,,25.631409000023268,,,,,,,,,25.62607310002204,25.631409000023268,25.631409000023268,26.511984600045253,1,0.876007099985145,,,,,,,,,,,,,,,,MS,25,M,R,R,2025-02-11_13h04.13.677,ContrastSen,2024.2.4,60.02210014484237,2025-02-11 13h05.19.652949 +0000,
1,0.6,0.251188643150958,,,,26.525821800052654,,,,,,,,,26.512441600032616,26.525821800052654,26.525821800052654,27.361804800049867,1,0.827521400002297,,,,,,,,,,,,,,,,MS,25,M,R,R,2025-02-11_13h04.13.677,ContrastSen,2024.2.4,60.02210014484237,2025-02-11 13h05.19.652949 +0000,
2,0.6,0.06309573444801933,,,,27.37563870003214,,,,,,,,,27.36228460003622,27.37563870003214,27.37563870003214,28.145776500052307,1,0.7648937000194564,,,,,,,,,,,,,,,,MS,25,M,R,R,2025-02-11_13h04.13.677,ContrastSen,2024.2.4,60.02210014484237,2025-02-11 13h05.19.652949 +0000,
3,0.6,0.015848931924611138,,,,28.158769600035157,,,,,,,,,28.146320400002878,28.158769600035157,28.158769600035157,29.044774000009056,1,0.8710178000037558,,,,,,,,,,,,,,,,MS,25,M,R,R,2025-02-11_13h04.13.677,ContrastSen,2024.2.4,60.02210014484237,2025-02-11 13h05.19.652949 +0000,
4,0.4,0.003981071705534973,,,,29.058673000021372,,,,,,,,,29.045212700031698,29.058673000021372,29.058673000021372,32.86253870005021,0,3.791937700007111,,,,,,,,,,,,,,,,MS,25,M,R,R,2025-02-11_13h04.13.677,ContrastSen,2024.2.4,60.02210014484237,2025-02-11 13h05.19.652949 +0000,
5,0.4,0.010000000000000002,,,,32.875334900047164,,,,,,,,,32.86310750001576,32.875334900047164,32.875334900047164,34.84381380002014,0,1.9662921999697573,,,,,,,,,,,,,,,,MS,25,M,R,R,2025-02-11_13h04.13.677,ContrastSen,2024.2.4,60.02210014484237,2025-02-11 13h05.19.652949 +0000,
6,0.4,0.025118864315095805,,,,34.85900050000055,,,,,,,,,34.84409900003811,34.85900050000055,34.85900050000055,36.07788650004659,1,1.2012372000026517,,,,,,,,,,,,,,,,MS,25,M,R,R,2025-02-11_13h04.13.677,ContrastSen,2024.2.4,60.02210014484237,2025-02-11 13h05.19.652949 +0000,
7,0.4,0.025118864315095805,,,,36.091765800025314,,,,,,,,,36.078354400000535,36.091765800025314,36.091765800025314,36.81216210004641,1,0.7065845000324771,,,,,,,,,,,,,,,,MS,25,M,R,R,2025-02-11_13h04.13.677,ContrastSen,2024.2.4,60.02210014484237,2025-02-11 13h05.19.652949 +0000,
8,0.4,0.025118864315095805,,,,36.825169800024014,,,,,,,,,36.812668600003235,36.825169800024014,36.825169800024014,37.8614337000181,1,1.0207894999766722,,,,,,,,,,,,,,,,MS,25,M,R,R,2025-02-11_13h04.13.677,ContrastSen,2024.2.4,60.02210014484237,2025-02-11 13h05.19.652949 +0000,
9,0.4,0.010000000000000002,,,,37.87528580002254,,,,,,,,,37.861868000007235,37.87528580002254,37.87528580002254,41.24339250003686,1,3.3576459000469185,,,,,,,,,,,,,,,,MS,25,M,R,R,2025-02-11_13h04.13.677,ContrastSen,2024.2.4,60.02210014484237,2025-02-11 13h05.19.652949 +0000,
10,0.2,0.010000000000000002,,,,41.25817020004615,,,,,,,,,41.243684000044595,41.25817020004615,41.25817020004615,44.34525300003588,0,3.0725350999855436,,,,,,,,,,,,,,,,MS,25,M,R,R,2025-02-11_13h04.13.677,ContrastSen,2024.2.4,60.02210014484237,2025-02-11 13h05.19.652949 +0000,
11,0.2,0.015848931924611138,,,,44.35839870001655,,,,,,,,,44.34583450003993,44.35839870001655,44.35839870001655,45.11053880001418,1,0.7424423999618739,,,,,,,,,,,,,,,,MS,25,M,R,R,2025-02-11_13h04.13.677,ContrastSen,2024.2.4,60.02210014484237,2025-02-11 13h05.19.652949 +0000,
12,0.2,0.015848931924611138,,,,45.12507860001642,,,,,,,,,45.110845000017434,45.12507860001642,45.12507860001642,45.85987240000395,1,0.7289583000238054,,,,,,,,,,,,,,,,MS,25,M,R,R,2025-02-11_13h04.13.677,ContrastSen,2024.2.4,60.02210014484237,2025-02-11 13h05.19.652949 +0000,
13,0.1,0.015848931924611138,,,,45.87470410001697,,,,,,,,,45.86011770000914,45.87470410001697,45.87470410001697,46.52592210000148,1,0.6343759000301361,,,,,,,,,,,,,,,,MS,25,M,R,R,2025-02-11_13h04.13.677,ContrastSen,2024.2.4,60.02210014484237,2025-02-11 13h05.19.652949 +0000,
14,0.05,0.012589254117941673,,,,46.54113570001209,,,,,,,,,46.52612340002088,46.54113570001209,46.54113570001209,47.87772530002985,0,1.324365200009197,,,,,,,,,,,,,,,,MS,25,M,R,R,2025-02-11_13h04.13.677,ContrastSen,2024.2.4,60.02210014484237,2025-02-11 13h05.19.652949 +0000,
15,0.05,0.014125375446227544,,,,47.891760000027716,,,,,,,,,47.87811290001264,47.891760000027716,47.891760000027716,48.84406150004361,1,0.9441499999957159,,,,,,,,,,,,,,,,MS,25,M,R,R,2025-02-11_13h04.13.677,ContrastSen,2024.2.4,60.02210014484237,2025-02-11 13h05.19.652949 +0000,
16,0.05,0.014125375446227544,,,,48.858169900020584,,,,,,,,,48.84441370004788,48.858169900020584,48.858169900020584,49.92545040004188,1,1.062287800014019,,,,,,,,,,,,,,,,MS,25,M,R,R,2025-02-11_13h04.13.677,ContrastSen,2024.2.4,60.02210014484237,2025-02-11 13h05.19.652949 +0000,
17,0.05,0.014125375446227544,,,,49.94112130004214,,,,,,,,,49.92560850002337,49.94112130004214,49.94112130004214,51.14275550004095,1,1.1998876999714412,,,,,,,,,,,,,,,,MS,25,M,R,R,2025-02-11_13h04.13.677,ContrastSen,2024.2.4,60.02210014484237,2025-02-11 13h05.19.652949 +0000,
18,0.05,0.012589254117941673,,,,51.15785630000755,,,,,,,,,51.14303620002465,51.15785630000755,51.15785630000755,53.36107320000883,0,2.1904089999734424,,,,,,,,,,,,,,,,MS,25,M,R,R,2025-02-11_13h04.13.677,ContrastSen,2024.2.4,60.02210014484237,2025-02-11 13h05.19.652949 +0000,
19,0.05,0.014125375446227544,,,,53.374952500045765,,,,,,,,,53.36156490002759,53.374952500045765,53.374952500045765,55.810721200017724,1,2.427988500043284,,,,,,,,,,,,,,,,MS,25,M,R,R,2025-02-11_13h04.13.677,ContrastSen,2024.2.4,60.02210014484237,2025-02-11 13h05.19.652949 +0000,
20,0.05,0.014125375446227544,,,,55.824990699999034,,,,,,,,,55.811148200009484,55.824990699999034,55.824990699999034,56.89527740003541,1,1.0559407999971882,,,,,,,,,,,,,,,,MS,25,M,R,R,2025-02-11_13h04.13.677,ContrastSen,2024.2.4,60.02210014484237,2025-02-11 13h05.19.652949 +0000,
21,0.05,0.014125375446227544,,,,56.908356600033585,,,,,,,,,56.89589410001645,56.908356600033585,56.908356600033585,57.76068040000973,1,0.8412685999646783,,,,,,,,,,,,,,,,MS,25,M,R,R,2025-02-11_13h04.13.677,ContrastSen,2024.2.4,60.02210014484237,2025-02-11 13h05.19.652949 +0000,
22,0.05,0.012589254117941673,,,,57.7748111000401,,,,,,,,,57.761063700017985,57.7748111000401,57.7748111000401,59.094146899995394,1,1.3169807000085711,,,,,,,,,,,,,,,,MS,25,M,R,R,2025-02-11_13h04.13.677,ContrastSen,2024.2.4,60.02210014484237,2025-02-11 13h05.19.652949 +0000,
23,0.05,0.012589254117941673,,,,59.108273400051985,,,,,,,,,59.09451820002869,59.108273400051985,59.108273400051985,60.87823860003846,1,1.7657932000001892,,,,,,,,,,,,,,,,MS,25,M,R,R,2025-02-11_13h04.13.677,ContrastSen,2024.2.4,60.02210014484237,2025-02-11 13h05.19.652949 +0000,
24,0.05,0.012589254117941673,,,,60.891393000027165,,,,,,,,,60.87870689999545,60.891393000027165,60.891393000027165,61.99310400005197,0,1.087606400018558,,,,,,,,,,,,,,,,MS,25,M,R,R,2025-02-11_13h04.13.677,ContrastSen,2024.2.4,60.02210014484237,2025-02-11 13h05.19.652949 +0000,
25,0.05,0.014125375446227544,,,,62.007795400044415,,,,,,,,,61.9934431000147,62.007795400044415,62.007795400044415,63.49178330000723,1,1.4684500999865122,,,,,,,,,,,,,,,,MS,25,M,R,R,2025-02-11_13h04.13.677,ContrastSen,2024.2.4,60.02210014484237,2025-02-11 13h05.19.652949 +0000,
26,0.05,0.014125375446227544,,,,63.50747140002204,,,,,,,,,63.49200500000734,63.50747140002204,63.50747140002204,64.35935440001776,1,0.8434113999828696,,,,,,,,,,,,,,,,MS,25,M,R,R,2025-02-11_13h04.13.677,ContrastSen,2024.2.4,60.02210014484237,2025-02-11 13h05.19.652949 +0000,
27,0.05,0.014125375446227544,,,,64.3741043000482,,,,,,,,,64.35964470001636,64.3741043000482,64.3741043000482,66.16098370001419,1,1.7763807999435812,,,,,,,,,,,,,,,,MS,25,M,R,R,2025-02-11_13h04.13.677,ContrastSen,2024.2.4,60.02210014484237,2025-02-11 13h05.19.652949 +0000,
28,0.05,0.012589254117941673,,,,66.17463550000684,,,,,,,,,66.16147040005308,66.17463550000684,66.17463550000684,67.47781700000633,0,1.294201200013049,,,,,,,,,,,,,,,,MS,25,M,R,R,2025-02-11_13h04.13.677,ContrastSen,2024.2.4,60.02210014484237,2025-02-11 13h05.19.652949 +0000,
29,0.05,0.014125375446227544,,,,67.49075009999797,,,,,,,,,67.47833060001722,67.49075009999797,67.49075009999797,68.17656970000826,1,0.678267799958121,,,,,,,,,,,,,,,,MS,25,M,R,R,2025-02-11_13h04.13.677,ContrastSen,2024.2.4,60.02210014484237,2025-02-11 13h05.19.652949 +0000,
30,0.05,0.014125375446227544,,,,68.19122410001,,,,,,,,,68.17690550000407,68.19122410001,68.19122410001,68.76153830002295,1,0.5651284999912605,,,,,,,,,,,,,,,,MS,25,M,R,R,2025-02-11_13h04.13.677,ContrastSen,2024.2.4,60.02210014484237,2025-02-11 13h05.19.652949 +0000,
31,0.05,0.014125375446227544,,,,68.77472070005024,,,,,,,,,68.76203660003375,68.77472070005024,68.77472070005024,69.44397830002708,1,0.6622499000513926,,,,,,,,,,,,,,,,MS,25,M,R,R,2025-02-11_13h04.13.677,ContrastSen,2024.2.4,60.02210014484237,2025-02-11 13h05.19.652949 +0000,
32,0.05,0.012589254117941673,,,,69.4577500000014,,,,,,,,,69.44439550000243,69.4577500000014,69.4577500000014,70.14418660005322,1,0.6772464000387117,,,,,,,,,,,,,,,,MS,25,M,R,R,2025-02-11_13h04.13.677,ContrastSen,2024.2.4,60.02210014484237,2025-02-11 13h05.19.652949 +0000,
33,0.05,0.012589254117941673,,,,70.15802030003397,,,,,,,,,70.144568000047,70.15802030003397,70.15802030003397,71.64507990004495,1,1.4780873999698088,,,,,,,,,,,,,,,,MS,25,M,R,R,2025-02-11_13h04.13.677,ContrastSen,2024.2.4,60.02210014484237,2025-02-11 13h05.19.652949 +0000,
34,0.05,0.012589254117941673,,,,71.65757750003831,,,,,,,,,71.64570160000585,71.65757750003831,71.65757750003831,72.24480550002772,1,0.5738234999589622,,,,,,,,,,,,,,,,MS,25,M,R,R,2025-02-11_13h04.13.677,ContrastSen,2024.2.4,60.02210014484237,2025-02-11 13h05.19.652949 +0000,
35,0.05,0.011220184543019636,,,,72.2579085000325,,,,,,,,,72.24521090002963,72.2579085000325,72.2579085000325,74.16099010000471,1,1.889932099962607,,,,,,,,,,,,,,,,MS,25,M,R,R,2025-02-11_13h04.13.677,ContrastSen,2024.2.4,60.02210014484237,2025-02-11 13h05.19.652949 +0000,
36,0.05,0.011220184543019636,,,,74.17438530002255,,,,,,,,,74.16156510001747,74.17438530002255,74.17438530002255,76.69221130001824,0,2.515952199988533,,,,,,,,,,,,,,,,MS,25,M,R,R,2025-02-11_13h04.13.677,ContrastSen,2024.2.4,60.02210014484237,2025-02-11 13h05.19.652949 +0000,
37,0.05,0.012589254117941673,,,,76.70721570000751,,,,,,,,,76.69248450000305,76.70721570000751,76.70721570000751,77.40842390002217,1,0.6919646000023931,,,,,,,,,,,,,,,,MS,25,M,R,R,2025-02-11_13h04.13.677,ContrastSen,2024.2.4,60.02210014484237,2025-02-11 13h05.19.652949 +0000,
38,0.05,0.012589254117941673,,,,77.4238777999999,,,,,,,,,77.40861590002896,77.4238777999999,77.4238777999999,79.52675030002138,1,2.092968299984932,,,,,,,,,,,,,,,,MS,25,M,R,R,2025-02-11_13h04.13.677,ContrastSen,2024.2.4,60.02210014484237,2025-02-11 13h05.19.652949 +0000,
39,0.05,0.012589254117941673,,,,79.540820299997,,,,,,,,,79.52719150000485,79.540820299997,79.540820299997,80.42709589999868,1,0.877555700019002,,,,,,,,,,,,,,,,MS,25,M,R,R,2025-02-11_13h04.13.677,ContrastSen,2024.2.4,60.02210014484237,2025-02-11 13h05.19.652949 +0000,
40,0.05,0.011220184543019636,,,,80.44052820000798,,,,,,,,,80.42753960000118,80.44052820000798,80.44052820000798,81.9439371000044,1,1.4966998999589123,,,,,,,,,,,,,,,,MS,25,M,R,R,2025-02-11_13h04.13.677,ContrastSen,2024.2.4,60.02210014484237,2025-02-11 13h05.19.652949 +0000,
41,0.05,0.011220184543019636,,,,81.95737540000118,,,,,,,,,81.94432230002712,81.95737540000118,81.95737540000118,83.9761633000453,0,2.0011464999988675,,,,,,,,,,,,,,,,MS,25,M,R,R,2025-02-11_13h04.13.677,ContrastSen,2024.2.4,60.02210014484237,2025-02-11 13h05.19.652949 +0000,
42,0.05,0.012589254117941673,,,,83.99076440004865,,,,,,,,,83.97655510000186,83.99076440004865,83.99076440004865,85.72723860002588,0,1.7259498999919742,,,,,,,,,,,,,,,,MS,25,M,R,R,2025-02-11_13h04.13.677,ContrastSen,2024.2.4,60.02210014484237,2025-02-11 13h05.19.652949 +0000,
43,0.05,0.014125375446227544,,,,85.74087259999942,,,,,,,,,85.72766500001308,85.74087259999942,85.74087259999942,86.46055400004843,1,0.7073251999681816,,,,,,,,,,,,,,,,MS,25,M,R,R,2025-02-11_13h04.13.677,ContrastSen,2024.2.4,60.02210014484237,2025-02-11 13h05.19.652949 +0000,
44,0.05,0.014125375446227544,,,,86.47415409999667,,,,,,,,,86.46114700002363,86.47415409999667,86.47415409999667,87.21500240004389,1,0.7008295999839902,,,,,,,,,,,,,,,,MS,25,M,R,R,2025-02-11_13h04.13.677,ContrastSen,2024.2.4,60.02210014484237,2025-02-11 13h05.19.652949 +0000,
45,0.05,0.014125375446227544,,,,87.22032480000053,,,,,,,,,87.21515110001201,87.22032480000053,87.22032480000053,87.99400030000834,1,0.75860850000754,,,,,,,,,,,,,,,,MS,25,M,R,R,2025-02-11_13h04.13.677,ContrastSen,2024.2.4,60.02210014484237,2025-02-11 13h05.19.652949 +0000,
46,0.05,0.012589254117941673,,,,88.007643799996,,,,,,,,,87.99434080003994,88.007643799996,88.007643799996,89.45937330002198,1,1.4392420999938622,,,,,,,,,,,,,,,,MS,25,M,R,R,2025-02-11_13h04.13.677,ContrastSen,2024.2.4,60.02210014484237,2025-02-11 13h05.19.652949 +0000,
47,0.05,0.012589254117941673,,,,89.47394150000764,,,,,,,,,89.45971990004182,89.47394150000764,89.47394150000764,91.15858550003031,1,1.6774434999679215,,,,,,,,,,,,,,,,MS,25,M,R,R,2025-02-11_13h04.13.677,ContrastSen,2024.2.4,60.02210014484237,2025-02-11 13h05.19.652949 +0000,
48,0.05,0.012589254117941673,,,,91.17358410003362,,,,,,,,,91.15882830001647,91.17358410003362,91.17358410003362,93.04275200003758,1,1.8570888999965973,,,,,,,,,,,,,,,,MS,25,M,R,R,2025-02-11_13h04.13.677,ContrastSen,2024.2.4,60.02210014484237,2025-02-11 13h05.19.652949 +0000,
49,0.05,0.011220184543019636,,,,93.0576224999968,,,,,,,,,93.04304270003922,93.0576224999968,93.0576224999968,95.21083580004051,0,2.144774899992626,,,,,,,,,,,,,,,,MS,25,M,R,R,2025-02-11_13h04.13.677,ContrastSen,2024.2.4,60.02210014484237,2025-02-11 13h05.19.652949 +0000,
,,,,,,,,,,,,,,,,,,,,,95.211141900043,95.22418090002611,95.22418090002611,230.589216100052,right,135.3583775999723,None,,,,,,,,,MS,25,M,R,R,2025-02-11_13h04.13.677,ContrastSen,2024.2.4,60.02210014484237,2025-02-11 13h05.19.652949 +0000,
,,,0,0.6,1.0,230.60400960000698,,,,,,,,,,,,,,,,,,,,,,230.58947540004738,230.60400960000698,230.60400960000698,231.2051087000291,1,0.5893944000126794,,,MS,25,M,R,R,2025-02-11_13h04.13.677,ContrastSen,2024.2.4,60.02210014484237,2025-02-11 13h05.19.652949 +0000,
,,,1,0.6,0.251188643150958,231.2206312000053,,,,,,,,,,,,,,,,,,,,,,231.20527150004636,231.2206312000053,231.2206312000053,231.755050900043,1,0.532530999975279,,,MS,25,M,R,R,2025-02-11_13h04.13.677,ContrastSen,2024.2.4,60.02210014484237,2025-02-11 13h05.19.652949 +0000,
,,,2,0.6,0.06309573444801933,231.77071120002074,,,,,,,,,,,,,,,,,,,,,,231.75520420004614,231.77071120002074,231.77071120002074,232.32251440000255,1,0.5481007000198588,,,MS,25,M,R,R,2025-02-11_13h04.13.677,ContrastSen,2024.2.4,60.02210014484237,2025-02-11 13h05.19.652949 +0000,
,,,3,0.4,0.015848931924611138,232.33717780001462,,,,,,,,,,,,,,,,,,,,,,232.32278210000368,232.33717780001462,232.33717780001462,232.38945600000443,0,None,,,MS,25,M,R,R,2025-02-11_13h04.13.677,ContrastSen,2024.2.4,60.02210014484237,2025-02-11 13h05.19.652949 +0000,
,,,4,0.4,0.039810717055349734,232.4041005000472,,,,,,,,,,,,,,,,,,,,,,232.3897425000323,232.4041005000472,232.4041005000472,232.92159150005318,1,0.5088730999850668,,,MS,25,M,R,R,2025-02-11_13h04.13.677,ContrastSen,2024.2.4,60.02210014484237,2025-02-11 13h05.19.652949 +0000,
,,,5,0.4,0.039810717055349734,232.9371052000206,,,,,,,,,,,,,,,,,,,,,,232.9218662000494,232.9371052000206,232.9371052000206,233.5714460000163,1,0.6278904000064358,,,MS,25,M,R,R,2025-02-11_13h04.13.677,ContrastSen,2024.2.4,60.02210014484237,2025-02-11 13h05.19.652949 +0000,
,,,6,0.4,0.039810717055349734,233.5870627000113,,,,,,,,,,,,,,,,,,,,,,233.57159420003882,233.5870627000113,233.5870627000113,234.5060167000047,1,0.9053795000072569,,,MS,25,M,R,R,2025-02-11_13h04.13.677,ContrastSen,2024.2.4,60.02210014484237,2025-02-11 13h05.19.652949 +0000,
,,,7,0.4,0.015848931924611138,234.52066030004062,,,,,,,,,,,,,,,,,,,,,,234.50638370000524,234.52066030004062,234.52066030004062,236.15500900003826,1,1.6277231999556534,,,MS,25,M,R,R,2025-02-11_13h04.13.677,ContrastSen,2024.2.4,60.02210014484237,2025-02-11 13h05.19.652949 +0000,
,,,8,0.2,0.015848931924611138,236.17049010004848,,,,,,,,,,,,,,,,,,,,,,236.15516190003837,236.17049010004848,236.17049010004848,237.1717702000169,0,0.9931715000420809,,,MS,25,M,R,R,2025-02-11_13h04.13.677,ContrastSen,2024.2.4,60.02210014484237,2025-02-11 13h05.19.652949 +0000,
,,,9,0.2,0.025118864315095808,237.18691380001837,,,,,,,,,,,,,,,,,,,,,,237.17197890003445,237.18691380001837,237.18691380001837,238.50539639999624,0,1.31325609999476,,,MS,25,M,R,R,2025-02-11_13h04.13.677,ContrastSen,2024.2.4,60.02210014484237,2025-02-11 13h05.19.652949 +0000,
,,,10,0.2,0.03981071705534974,238.52061140001751,,,,,,,,,,,,,,,,,,,,,,238.50562520005042,238.52061140001751,238.52061140001751,239.13814060000004,1,0.6019629000220448,,,MS,25,M,R,R,2025-02-11_13h04.13.677,ContrastSen,2024.2.4,60.02210014484237,2025-02-11 13h05.19.652949 +0000,
,,,11,0.2,0.03981071705534974,239.15371330000926,,,,,,,,,,,,,,,,,,,,,,239.13830900000175,239.15371330000926,239.15371330000926,239.75465790001908,1,0.5889047000091523,,,MS,25,M,R,R,2025-02-11_13h04.13.677,ContrastSen,2024.2.4,60.02210014484237,2025-02-11 13h05.19.652949 +0000,
,,,12,0.1,0.03981071705534974,239.77044270001352,,,,,,,,,,,,,,,,,,,,,,239.7548695000005,239.77044270001352,239.77044270001352,240.40472360001877,1,0.6192437999998219,,,MS,25,M,R,R,2025-02-11_13h04.13.677,ContrastSen,2024.2.4,60.02210014484237,2025-02-11 13h05.19.652949 +0000,
,,,13,0.1,0.031622776601683805,240.42023270000936,,,,,,,,,,,,,,,,,,,,,,240.4048878000467,240.42023270000936,240.42023270000936,241.00510380003834,1,0.5822900999919511,,,MS,25,M,R,R,2025-02-11_13h04.13.677,ContrastSen,2024.2.4,60.02210014484237,2025-02-11 13h05.19.652949 +0000,
,,,14,0.1,0.031622776601683805,241.02038520004135,,,,,,,,,,,,,,,,,,,,,,241.0053802000475,241.02038520004135,241.02038520004135,241.97111420001602,1,0.9354928999673575,,,MS,25,M,R,R,2025-02-11_13h04.13.677,ContrastSen,2024.2.4,60.02210014484237,2025-02-11 13h05.19.652949 +0000,
,,,15,0.1,0.031622776601683805,241.98687720001908,,,,,,,,,,,,,,,,,,,,,,241.97131590003846,241.98687720001908,241.98687720001908,242.57096280000405,1,0.5716826000134461,,,MS,25,M,R,R,2025-02-11_13h04.13.677,ContrastSen,2024.2.4,60.02210014484237,2025-02-11 13h05.19.652949 +0000,
,,,16,0.1,0.025118864315095808,242.58679070003564,,,,,,,,,,,,,,,,,,,,,,242.57112370000686,242.58679070003564,242.58679070003564,243.62170290003996,1,1.0338155999779701,,,MS,25,M,R,R,2025-02-11_13h04.13.677,ContrastSen,2024.2.4,60.02210014484237,2025-02-11 13h05.19.652949 +0000,
,,,17,0.1,0.025118864315095808,243.63673830003245,,,,,,,,,,,,,,,,,,,,,,243.62188059999608,243.63673830003245,243.63673830003245,244.3712632000097,1,0.7237777999835089,,,MS,25,M,R,R,2025-02-11_13h04.13.677,ContrastSen,2024.2.4,60.02210014484237,2025-02-11 13h05.19.652949 +0000,
,,,18,0.1,0.025118864315095808,244.38683400000446,,,,,,,,,,,,,,,,,,,,,,244.371411500033,244.38683400000446,244.38683400000446,245.12163330003386,1,0.7279359000385739,,,MS,25,M,R,R,2025-02-11_13h04.13.677,ContrastSen,2024.2.4,60.02210014484237,2025-02-11 13h05.19.652949 +0000,
,,,19,0.05,0.019952623149688802,245.13683590001892,,,,,,,,,,,,,,,,,,,,,,245.12188560003415,245.13683590001892,245.13683590001892,246.97078710002825,0,1.8276007000240497,,,MS,25,M,R,R,2025-02-11_13h04.13.677,ContrastSen,2024.2.4,60.02210014484237,2025-02-11 13h05.19.652949 +0000,
,,,20,0.05,0.022387211385683402,246.98676830000477,,,,,,,,,,,,,,,,,,,,,,246.9709717000369,246.98676830000477,246.98676830000477,248.00464890000876,1,1.0116307999705896,,,MS,25,M,R,R,2025-02-11_13h04.13.677,ContrastSen,2024.2.4,60.02210014484237,2025-02-11 13h05.19.652949 +0000,
,,,21,0.05,0.022387211385683402,248.02014560002135,,,,,,,,,,,,,,,,,,,,,,248.00486220000312,248.02014560002135,248.02014560002135,249.07106740004383,1,1.0450362999690697,,,MS,25,M,R,R,2025-02-11_13h04.13.677,ContrastSen,2024.2.4,60.02210014484237,2025-02-11 13h05.19.652949 +0000,
,,,22,0.05,0.022387211385683402,249.08673510001972,,,,,,,,,,,,,,,,,,,,,,249.07130770001095,249.08673510001972,249.08673510001972,249.82183550001355,1,0.7318728000391275,,,MS,25,M,R,R,2025-02-11_13h04.13.677,ContrastSen,2024.2.4,60.02210014484237,2025-02-11 13h05.19.652949 +0000,
,,,23,0.05,0.019952623149688802,249.83676770003513,,,,,,,,,,,,,,,,,,,,,,249.8220646000118,249.83676770003513,249.83676770003513,250.47111159999622,0,0.6226574999745935,,,MS,25,M,R,R,2025-02-11_13h04.13.677,ContrastSen,2024.2.4,60.02210014484237,2025-02-11 13h05.19.652949 +0000,
,,,24,0.05,0.022387211385683402,250.48677810002118,,,,,,,,,,,,,,,,,,,,,,250.4712679000222,250.48677810002118,250.48677810002118,251.10441630001878,1,0.6042986999964342,,,MS,25,M,R,R,2025-02-11_13h04.13.677,ContrastSen,2024.2.4,60.02210014484237,2025-02-11 13h05.19.652949 +0000,
,,,25,0.05,0.022387211385683402,251.120086800016,,,,,,,,,,,,,,,,,,,,,,251.10457490000408,251.120086800016,251.120086800016,251.7047943000216,1,0.5837017999729142,,,MS,25,M,R,R,2025-02-11_13h04.13.677,ContrastSen,2024.2.4,60.02210014484237,2025-02-11 13h05.19.652949 +0000,
,,,26,0.05,0.022387211385683402,251.72010820003925,,,,,,,,,,,,,,,,,,,,,,251.70497680001426,251.72010820003925,251.72010820003925,252.30445820000023,1,0.5767422000062652,,,MS,25,M,R,R,2025-02-11_13h04.13.677,ContrastSen,2024.2.4,60.02210014484237,2025-02-11 13h05.19.652949 +0000,
,,,27,0.05,0.019952623149688802,252.3203107000445,,,,,,,,,,,,,,,,,,,,,,252.30473170004552,252.3203107000445,252.3203107000445,252.95505320001394,1,0.6314396999659948,,,MS,25,M,R,R,2025-02-11_13h04.13.677,ContrastSen,2024.2.4,60.02210014484237,2025-02-11 13h05.19.652949 +0000,
,,,28,0.05,0.019952623149688802,252.97020440001506,,,,,,,,,,,,,,,,,,,,,,252.9552856000373,252.97020440001506,252.97020440001506,254.4372884000186,0,1.4601968000060879,,,MS,25,M,R,R,2025-02-11_13h04.13.677,ContrastSen,2024.2.4,60.02210014484237,2025-02-11 13h05.19.652949 +0000,
,,,29,0.05,0.022387211385683402,254.4534505000338,,,,,,,,,,,,,,,,,,,,,,254.43747430003714,254.4534505000338,254.4534505000338,255.10444230004214,1,0.6469877999625169,,,MS,25,M,R,R,2025-02-11_13h04.13.677,ContrastSen,2024.2.4,60.02210014484237,2025-02-11 13h05.19.652949 +0000,
,,,30,0.05,0.022387211385683402,255.12004810001235,,,,,,,,,,,,,,,,,,,,,,255.1046108000446,255.12004810001235,255.12004810001235,256.3209405000089,1,1.1864136999938637,,,MS,25,M,R,R,2025-02-11_13h04.13.677,ContrastSen,2024.2.4,60.02210014484237,2025-02-11 13h05.19.652949 +0000,
,,,31,0.05,0.022387211385683402,256.3366997000412,,,,,,,,,,,,,,,,,,,,,,256.32114940002793,256.3366997000412,256.3366997000412,256.9544380000443,1,0.6126973999780603,,,MS,25,M,R,R,2025-02-11_13h04.13.677,ContrastSen,2024.2.4,60.02210014484237,2025-02-11 13h05.19.652949 +0000,
,,,32,0.05,0.019952623149688802,256.97007020004094,,,,,,,,,,,,,,,,,,,,,,256.9546365000424,256.97007020004094,256.97007020004094,258.3716471000225,1,1.3843251999933273,,,MS,25,M,R,R,2025-02-11_13h04.13.677,ContrastSen,2024.2.4,60.02210014484237,2025-02-11 13h05.19.652949 +0000,
,,,33,0.05,0.019952623149688802,258.38660610001534,,,,,,,,,,,,,,,,,,,,,,258.3718831000151,258.38660610001534,258.38660610001534,259.2041178000509,1,0.8037664000294171,,,MS,25,M,R,R,2025-02-11_13h04.13.677,ContrastSen,2024.2.4,60.02210014484237,2025-02-11 13h05.19.652949 +0000,
,,,34,0.05,0.019952623149688802,259.21985570003744,,,,,,,,,,,,,,,,,,,,,,259.2042730000103,259.21985570003744,259.21985570003744,261.2718308000476,1,2.0372701000305824,,,MS,25,M,R,R,2025-02-11_13h04.13.677,ContrastSen,2024.2.4,60.02210014484237,2025-02-11 13h05.19.652949 +0000,
,,,35,0.05,0.017782794100389236,261.2865345000173,,,,,,,,,,,,,,,,,,,,,,261.27207420003833,261.2865345000173,261.2865345000173,264.32068930001697,1,3.018699199950788,,,MS,25,M,R,R,2025-02-11_13h04.13.677,ContrastSen,2024.2.4,60.02210014484237,2025-02-11 13h05.19.652949 +0000,
,,,36,0.05,0.017782794100389236,264.3365558000514,,,,,,,,,,,,,,,,,,,,,,264.32084540004143,264.3365558000514,264.3365558000514,266.77080120000755,0,2.423767600033898,,,MS,25,M,R,R,2025-02-11_13h04.13.677,ContrastSen,2024.2.4,60.02210014484237,2025-02-11 13h05.19.652949 +0000,
,,,37,0.05,0.019952623149688802,266.7863891000161,,,,,,,,,,,,,,,,,,,,,,266.7709850000101,266.7863891000161,266.7863891000161,267.48780689999694,1,0.6873532000463456,,,MS,25,M,R,R,2025-02-11_13h04.13.677,ContrastSen,2024.2.4,60.02210014484237,2025-02-11 13h05.19.652949 +0000,
,,,38,0.05,0.019952623149688802,267.50314750004327,,,,,,,,,,,,,,,,,,,,,,267.48803150001913,267.50314750004327,267.50314750004327,268.22090330003994,1,0.7119269999675453,,,MS,25,M,R,R,2025-02-11_13h04.13.677,ContrastSen,2024.2.4,60.02210014484237,2025-02-11 13h05.19.652949 +0000,
,,,39,0.05,0.019952623149688802,268.23646200000076,,,,,,,,,,,,,,,,,,,,,,268.22113479999825,268.23646200000076,268.23646200000076,268.8210009000031,1,0.5744447999750264,,,MS,25,M,R,R,2025-02-11_13h04.13.677,ContrastSen,2024.2.4,60.02210014484237,2025-02-11 13h05.19.652949 +0000,
,,,40,0.05,0.017782794100389236,268.83642270002747,,,,,,,,,,,,,,,,,,,,,,268.82116049999604,268.83642270002747,268.83642270002747,271.1205947000417,1,2.282138300011866,,,MS,25,M,R,R,2025-02-11_13h04.13.677,ContrastSen,2024.2.4,60.02210014484237,2025-02-11 13h05.19.652949 +0000,
,,,41,0.05,0.017782794100389236,271.1361762000015,,,,,,,,,,,,,,,,,,,,,,271.1207950000535,271.1361762000015,271.1361762000015,274.30416920001153,1,3.1612457999726757,,,MS,25,M,R,R,2025-02-11_13h04.13.677,ContrastSen,2024.2.4,60.02210014484237,2025-02-11 13h05.19.652949 +0000,
,,,42,0.05,0.017782794100389236,274.3196319999988,,,,,,,,,,,,,,,,,,,,,,274.3043985000113,274.3196319999988,274.3196319999988,274.93719230004353,1,0.6007740999921225,,,MS,25,M,R,R,2025-02-11_13h04.13.677,ContrastSen,2024.2.4,60.02210014484237,2025-02-11 13h05.19.652949 +0000,
,,,43,0.05,0.015848931924611145,274.95306100003654,,,,,,,,,,,,,,,,,,,,,,274.9373631000053,274.95306100003654,274.95306100003654,275.35386250005104,1,0.397312699991744,,,MS,25,M,R,R,2025-02-11_13h04.13.677,ContrastSen,2024.2.4,60.02210014484237,2025-02-11 13h05.19.652949 +0000,
,,,44,0.05,0.015848931924611145,275.36952960002236,,,,,,,,,,,,,,,,,,,,,,275.35404180001933,275.36952960002236,275.36952960002236,275.9049406000413,1,0.533570499974303,,,MS,25,M,R,R,2025-02-11_13h04.13.677,ContrastSen,2024.2.4,60.02210014484237,2025-02-11 13h05.19.652949 +0000,
,,,45,0.05,0.015848931924611145,275.9197066000197,,,,,,,,,,,,,,,,,,,,,,275.9051422000048,275.9197066000197,275.9197066000197,277.2877676000353,1,1.350889900000766,,,MS,25,M,R,R,2025-02-11_13h04.13.677,ContrastSen,2024.2.4,60.02210014484237,2025-02-11 13h05.19.652949 +0000,
,,,46,0.05,0.014125375446227552,277.30306620005285,,,,,,,,,,,,,,,,,,,,,,277.28809060005005,277.30306620005285,277.30306620005285,277.98759210004937,1,0.6794414999894798,,,MS,25,M,R,R,2025-02-11_13h04.13.677,ContrastSen,2024.2.4,60.02210014484237,2025-02-11 13h05.19.652949 +0000,
,,,47,0.05,0.014125375446227552,278.0029979000101,,,,,,,,,,,,,,,,,,,,,,277.9878727000323,278.0029979000101,278.0029979000101,279.22112420003396,0,1.2056317999958992,,,MS,25,M,R,R,2025-02-11_13h04.13.677,ContrastSen,2024.2.4,60.02210014484237,2025-02-11 13h05.19.652949 +0000,
,,,48,0.05,0.015848931924611145,279.2362386000459,,,,,,,,,,,,,,,,,,,,,,279.22141580004245,279.2362386000459,279.2362386000459,279.87116920005064,1,0.6219440000131726,,,MS,25,M,R,R,2025-02-11_13h04.13.677,ContrastSen,2024.2.4,60.02210014484237,2025-02-11 13h05.19.652949 +0000,
,,,49,0.05,0.015848931924611145,279.8861239000107,,,,,,,,,,,,,,,,,,,,,,279.87143200001447,279.8861239000107,279.8861239000107,282.50412009999854,1,2.6095836000167765,,,MS,25,M,R,R,2025-02-11_13h04.13.677,ContrastSen,2024.2.4,60.02210014484237,2025-02-11 13h05.19.652949 +0000,
,,,,,,,,,,,,,,,,,,,,,,,,,,,,,,,,,,282.5042142000166,282.5044382000342,MS,25,M,R,R,2025-02-11_13h04.13.677,ContrastSen,2024.2.4,60.02210014484237,2025-02-11 13h05.19.652949 +0000,
