StairLoop.thisTrialN,StairLoop.stepSize,StairLoop.intensity,StairLoop2.thisTrialN,StairLoop2.stepSize,StairLoop2.intensity,thisRow.t,notes,Intro.started,Instructions.started,key_resp_2.started,Intro.stopped,key_resp_2.keys,key_resp_2.rt,key_resp_2.duration,Left.started,Arrow.started,key_resp.started,Left.stopped,StairLoop.response,key_resp.rt,Pre_SecondBlock.started,key_resp_3.started,Change_eye.started,Pre_SecondBlock.stopped,key_resp_3.keys,key_resp_3.rt,key_resp_3.duration,Right.started,Arrow2.started,Key_Resp2.started,Right.stopped,StairLoop2.response,Key_Resp2.rt,End.started,End.stopped,participant,Age,Gender(M/F/N),Dominant Eye(L/R),Handedness(L/R),date,expName,psychopyVersion,frameRate,expStart,
,,,,,,,,0.003014200017787516,0.0066439000074751675,0.0066439000074751675,11.127739399991697,right,10.98967970002559,None,,,,,,,,,,,,,,,,,,,,,,NB,23,F,L,R,2025-02-19_11h52.29.944,ContrastSen,2024.2.4,59.7686117947633,2025-02-19 11h53.57.241136 +0000,
0,0.6,1.0,,,,11.13291179999942,,,,,,,,,11.127990200009663,11.13291179999942,11.13291179999942,13.200291999994079,1,2.0612817000073846,,,,,,,,,,,,,,,,NB,23,F,L,R,2025-02-19_11h52.29.944,ContrastSen,2024.2.4,59.7686117947633,2025-02-19 11h53.57.241136 +0000,
1,0.6,0.251188643150958,,,,13.214926200016635,,,,,,,,,13.20067960000597,13.214926200016635,13.214926200016635,17.268052700004773,1,4.037327900005039,,,,,,,,,,,,,,,,NB,23,F,L,R,2025-02-19_11h52.29.944,ContrastSen,2024.2.4,59.7686117947633,2025-02-19 11h53.57.241136 +0000,
2,0.6,0.06309573444801933,,,,17.281011999992188,,,,,,,,,17.268458300008206,17.281011999992188,17.281011999992188,19.000767499994254,1,1.708351200009929,,,,,,,,,,,,,,,,NB,23,F,L,R,2025-02-19_11h52.29.944,ContrastSen,2024.2.4,59.7686117947633,2025-02-19 11h53.57.241136 +0000,
3,0.6,0.015848931924611138,,,,19.014557299989974,,,,,,,,,19.001267000014195,19.014557299989974,19.014557299989974,19.867563000007067,1,0.8504972000082489,,,,,,,,,,,,,,,,NB,23,F,L,R,2025-02-19_11h52.29.944,ContrastSen,2024.2.4,59.7686117947633,2025-02-19 11h53.57.241136 +0000,
4,0.4,0.003981071705534973,,,,19.880942000017967,,,,,,,,,19.867927699990105,19.880942000017967,19.880942000017967,23.017080999998143,0,3.1200205000059213,,,,,,,,,,,,,,,,NB,23,F,L,R,2025-02-19_11h52.29.944,ContrastSen,2024.2.4,59.7686117947633,2025-02-19 11h53.57.241136 +0000,
5,0.4,0.010000000000000002,,,,23.030958199989982,,,,,,,,,23.01754100000835,23.030958199989982,23.030958199989982,25.066606000007596,1,2.0192205000203103,,,,,,,,,,,,,,,,NB,23,F,L,R,2025-02-19_11h52.29.944,ContrastSen,2024.2.4,59.7686117947633,2025-02-19 11h53.57.241136 +0000,
6,0.4,0.010000000000000002,,,,25.0811357999919,,,,,,,,,25.067000700015342,25.0811357999919,25.0811357999919,27.26664129999699,0,2.169926000002306,,,,,,,,,,,,,,,,NB,23,F,L,R,2025-02-19_11h52.29.944,ContrastSen,2024.2.4,59.7686117947633,2025-02-19 11h53.57.241136 +0000,
7,0.4,0.025118864315095805,,,,27.281002000003355,,,,,,,,,27.267047600005753,27.281002000003355,27.281002000003355,28.300120900006732,1,1.0041558000084478,,,,,,,,,,,,,,,,NB,23,F,L,R,2025-02-19_11h52.29.944,ContrastSen,2024.2.4,59.7686117947633,2025-02-19 11h53.57.241136 +0000,
8,0.4,0.025118864315095805,,,,28.313942100008717,,,,,,,,,28.300562199990964,28.313942100008717,28.313942100008717,29.767419200012228,1,1.4382212999917101,,,,,,,,,,,,,,,,NB,23,F,L,R,2025-02-19_11h52.29.944,ContrastSen,2024.2.4,59.7686117947633,2025-02-19 11h53.57.241136 +0000,
9,0.4,0.025118864315095805,,,,29.78096150001511,,,,,,,,,29.767960400000447,29.78096150001511,29.78096150001511,32.00062530001742,1,2.202516800025478,,,,,,,,,,,,,,,,NB,23,F,L,R,2025-02-19_11h52.29.944,ContrastSen,2024.2.4,59.7686117947633,2025-02-19 11h53.57.241136 +0000,
10,0.4,0.010000000000000002,,,,32.014477199991234,,,,,,,,,32.001072100014426,32.014477199991234,32.014477199991234,32.901301100006094,1,0.8833281999977771,,,,,,,,,,,,,,,,NB,23,F,L,R,2025-02-19_11h52.29.944,ContrastSen,2024.2.4,59.7686117947633,2025-02-19 11h53.57.241136 +0000,
11,0.2,0.010000000000000002,,,,32.91426879999926,,,,,,,,,32.90177749999566,32.91426879999926,32.91426879999926,36.11775619999389,0,3.196492600021884,,,,,,,,,,,,,,,,NB,23,F,L,R,2025-02-19_11h52.29.944,ContrastSen,2024.2.4,59.7686117947633,2025-02-19 11h53.57.241136 +0000,
12,0.2,0.015848931924611138,,,,36.130800300015835,,,,,,,,,36.11825980001595,36.130800300015835,36.130800300015835,38.90105539999786,1,2.7674125999910757,,,,,,,,,,,,,,,,NB,23,F,L,R,2025-02-19_11h52.29.944,ContrastSen,2024.2.4,59.7686117947633,2025-02-19 11h53.57.241136 +0000,
13,0.2,0.015848931924611138,,,,38.91389409999829,,,,,,,,,38.90151270001661,38.91389409999829,38.91389409999829,40.100874299998395,1,1.1805533999868203,,,,,,,,,,,,,,,,NB,23,F,L,R,2025-02-19_11h52.29.944,ContrastSen,2024.2.4,59.7686117947633,2025-02-19 11h53.57.241136 +0000,
14,0.1,0.015848931924611138,,,,40.11363999999594,,,,,,,,,40.10124670001096,40.11363999999594,40.11363999999594,41.58343860000605,1,1.4641068000055384,,,,,,,,,,,,,,,,NB,23,F,L,R,2025-02-19_11h52.29.944,ContrastSen,2024.2.4,59.7686117947633,2025-02-19 11h53.57.241136 +0000,
15,0.1,0.012589254117941673,,,,41.59735970001202,,,,,,,,,41.58386360001168,41.59735970001202,41.59735970001202,48.450416100007715,1,6.838783699990017,,,,,,,,,,,,,,,,NB,23,F,L,R,2025-02-19_11h52.29.944,ContrastSen,2024.2.4,59.7686117947633,2025-02-19 11h53.57.241136 +0000,
16,0.1,0.012589254117941673,,,,48.46374680000008,,,,,,,,,48.4508702000021,48.46374680000008,48.46374680000008,51.24864540001727,1,2.779700499988394,,,,,,,,,,,,,,,,NB,23,F,L,R,2025-02-19_11h52.29.944,ContrastSen,2024.2.4,59.7686117947633,2025-02-19 11h53.57.241136 +0000,
17,0.1,0.012589254117941673,,,,51.263406999991275,,,,,,,,,51.24892230000114,51.263406999991275,51.263406999991275,53.33099809999112,1,2.0538484000135213,,,,,,,,,,,,,,,,NB,23,F,L,R,2025-02-19_11h52.29.944,ContrastSen,2024.2.4,59.7686117947633,2025-02-19 11h53.57.241136 +0000,
18,0.1,0.01,,,,53.34666350000771,,,,,,,,,53.33120700001018,53.34666350000771,53.34666350000771,56.99776140000904,1,3.6467562000034377,,,,,,,,,,,,,,,,NB,23,F,L,R,2025-02-19_11h52.29.944,ContrastSen,2024.2.4,59.7686117947633,2025-02-19 11h53.57.241136 +0000,
19,0.1,0.01,,,,57.01330200000666,,,,,,,,,56.99798010001541,57.01330200000666,57.01330200000666,60.83327490001102,1,3.801316900004167,,,,,,,,,,,,,,,,NB,23,F,L,R,2025-02-19_11h52.29.944,ContrastSen,2024.2.4,59.7686117947633,2025-02-19 11h53.57.241136 +0000,
20,0.05,0.01,,,,60.84707079999498,,,,,,,,,60.83374410000397,60.84707079999498,60.84707079999498,63.86530720000155,0,3.009726300020702,,,,,,,,,,,,,,,,NB,23,F,L,R,2025-02-19_11h52.29.944,ContrastSen,2024.2.4,59.7686117947633,2025-02-19 11h53.57.241136 +0000,
21,0.05,0.011220184543019634,,,,63.88011090000509,,,,,,,,,63.86565819999669,63.88011090000509,63.88011090000509,69.73105699999724,1,5.844331400003284,,,,,,,,,,,,,,,,NB,23,F,L,R,2025-02-19_11h52.29.944,ContrastSen,2024.2.4,59.7686117947633,2025-02-19 11h53.57.241136 +0000,
22,0.05,0.011220184543019634,,,,69.74631240000599,,,,,,,,,69.73128430001088,69.74631240000599,69.74631240000599,73.46486140001798,1,3.7067113000084646,,,,,,,,,,,,,,,,NB,23,F,L,R,2025-02-19_11h52.29.944,ContrastSen,2024.2.4,59.7686117947633,2025-02-19 11h53.57.241136 +0000,
23,0.05,0.011220184543019634,,,,73.48002320001251,,,,,,,,,73.46522250000271,73.48002320001251,73.48002320001251,77.61529690001043,1,4.132412800012389,,,,,,,,,,,,,,,,NB,23,F,L,R,2025-02-19_11h52.29.944,ContrastSen,2024.2.4,59.7686117947633,2025-02-19 11h53.57.241136 +0000,
24,0.05,0.01,,,,77.62938160001067,,,,,,,,,77.61570130000473,77.62938160001067,77.62938160001067,79.33318380001583,1,1.698614599998109,,,,,,,,,,,,,,,,NB,23,F,L,R,2025-02-19_11h52.29.944,ContrastSen,2024.2.4,59.7686117947633,2025-02-19 11h53.57.241136 +0000,
25,0.05,0.01,,,,79.3462894000113,,,,,,,,,79.33365200000117,79.3462894000113,79.3462894000113,82.26696460001403,1,2.9048350999946706,,,,,,,,,,,,,,,,NB,23,F,L,R,2025-02-19_11h52.29.944,ContrastSen,2024.2.4,59.7686117947633,2025-02-19 11h53.57.241136 +0000,
26,0.05,0.01,,,,82.27966800000286,,,,,,,,,82.26750960000209,82.27966800000286,82.27966800000286,85.6661931000126,1,3.381640300009167,,,,,,,,,,,,,,,,NB,23,F,L,R,2025-02-19_11h52.29.944,ContrastSen,2024.2.4,59.7686117947633,2025-02-19 11h53.57.241136 +0000,
27,0.05,0.008912509381337455,,,,85.67974449999747,,,,,,,,,85.66669380001258,85.67974449999747,85.67974449999747,87.59985289999167,1,1.9074208999809343,,,,,,,,,,,,,,,,NB,23,F,L,R,2025-02-19_11h52.29.944,ContrastSen,2024.2.4,59.7686117947633,2025-02-19 11h53.57.241136 +0000,
28,0.05,0.008912509381337455,,,,87.61323740001535,,,,,,,,,87.60033499999554,87.61323740001535,87.61323740001535,90.61381579999579,1,2.9872272000066005,,,,,,,,,,,,,,,,NB,23,F,L,R,2025-02-19_11h52.29.944,ContrastSen,2024.2.4,59.7686117947633,2025-02-19 11h53.57.241136 +0000,
29,0.05,0.008912509381337455,,,,90.62924889998976,,,,,,,,,90.61397629999556,90.62924889998976,90.62924889998976,93.88287289999425,1,3.250545899994904,,,,,,,,,,,,,,,,NB,23,F,L,R,2025-02-19_11h52.29.944,ContrastSen,2024.2.4,59.7686117947633,2025-02-19 11h53.57.241136 +0000,
30,0.05,0.007943282347242816,,,,93.89650239999173,,,,,,,,,93.88330489999498,93.89650239999173,93.89650239999173,96.36595790000865,1,2.4648644999833778,,,,,,,,,,,,,,,,NB,23,F,L,R,2025-02-19_11h52.29.944,ContrastSen,2024.2.4,59.7686117947633,2025-02-19 11h53.57.241136 +0000,
31,0.05,0.007943282347242816,,,,96.37942579999799,,,,,,,,,96.3664354000066,96.37942579999799,96.37942579999799,99.9318414000154,1,3.5382688000099733,,,,,,,,,,,,,,,,NB,23,F,L,R,2025-02-19_11h52.29.944,ContrastSen,2024.2.4,59.7686117947633,2025-02-19 11h53.57.241136 +0000,
32,0.05,0.007943282347242816,,,,99.94608379999408,,,,,,,,,99.93228939999244,99.94608379999408,99.94608379999408,104.08300710000913,1,4.122402000008151,,,,,,,,,,,,,,,,NB,23,F,L,R,2025-02-19_11h52.29.944,ContrastSen,2024.2.4,59.7686117947633,2025-02-19 11h53.57.241136 +0000,
33,0.05,0.00707945784384138,,,,104.0960272999946,,,,,,,,,104.08347919999505,104.0960272999946,104.0960272999946,113.93146379999234,0,9.819020399998408,,,,,,,,,,,,,,,,NB,23,F,L,R,2025-02-19_11h52.29.944,ContrastSen,2024.2.4,59.7686117947633,2025-02-19 11h53.57.241136 +0000,
34,0.05,0.007943282347242816,,,,113.94538379998994,,,,,,,,,113.9319009000028,113.94538379998994,113.94538379998994,115.69906320000882,1,1.7355000000097789,,,,,,,,,,,,,,,,NB,23,F,L,R,2025-02-19_11h52.29.944,ContrastSen,2024.2.4,59.7686117947633,2025-02-19 11h53.57.241136 +0000,
35,0.05,0.007943282347242816,,,,115.71240019999095,,,,,,,,,115.69951949999086,115.71240019999095,115.71240019999095,117.23242610000307,1,1.5148534000036307,,,,,,,,,,,,,,,,NB,23,F,L,R,2025-02-19_11h52.29.944,ContrastSen,2024.2.4,59.7686117947633,2025-02-19 11h53.57.241136 +0000,
36,0.05,0.007943282347242816,,,,117.24561390001327,,,,,,,,,117.23293970001396,117.24561390001327,117.24561390001327,123.23225390000152,1,5.971137899992755,,,,,,,,,,,,,,,,NB,23,F,L,R,2025-02-19_11h52.29.944,ContrastSen,2024.2.4,59.7686117947633,2025-02-19 11h53.57.241136 +0000,
37,0.05,0.00707945784384138,,,,123.24552100000437,,,,,,,,,123.2327951999905,123.24552100000437,123.24552100000437,125.00005319999764,1,1.7514445999986492,,,,,,,,,,,,,,,,NB,23,F,L,R,2025-02-19_11h52.29.944,ContrastSen,2024.2.4,59.7686117947633,2025-02-19 11h53.57.241136 +0000,
38,0.05,0.00707945784384138,,,,125.01231879999978,,,,,,,,,125.0004620999971,125.01231879999978,125.01231879999978,129.1982884000172,0,4.175110700016376,,,,,,,,,,,,,,,,NB,23,F,L,R,2025-02-19_11h52.29.944,ContrastSen,2024.2.4,59.7686117947633,2025-02-19 11h53.57.241136 +0000,
39,0.05,0.007943282347242816,,,,129.2118371000106,,,,,,,,,129.1987589999917,129.2118371000106,129.2118371000106,133.8813724000065,1,4.660934299987275,,,,,,,,,,,,,,,,NB,23,F,L,R,2025-02-19_11h52.29.944,ContrastSen,2024.2.4,59.7686117947633,2025-02-19 11h53.57.241136 +0000,
40,0.05,0.007943282347242816,,,,133.8954381000076,,,,,,,,,133.8817723999964,133.8954381000076,133.8954381000076,136.08377900000778,1,2.173824700003024,,,,,,,,,,,,,,,,NB,23,F,L,R,2025-02-19_11h52.29.944,ContrastSen,2024.2.4,59.7686117947633,2025-02-19 11h53.57.241136 +0000,
41,0.05,0.007943282347242816,,,,136.09503180001047,,,,,,,,,136.08460629999172,136.09503180001047,136.09503180001047,137.31542709999485,1,1.211890599981416,,,,,,,,,,,,,,,,NB,23,F,L,R,2025-02-19_11h52.29.944,ContrastSen,2024.2.4,59.7686117947633,2025-02-19 11h53.57.241136 +0000,
42,0.05,0.00707945784384138,,,,137.32867200000328,,,,,,,,,137.31595330001437,137.32867200000328,137.32867200000328,141.2130451000121,1,3.882698400004301,,,,,,,,,,,,,,,,NB,23,F,L,R,2025-02-19_11h52.29.944,ContrastSen,2024.2.4,59.7686117947633,2025-02-19 11h53.57.241136 +0000,
43,0.05,0.00707945784384138,,,,141.22805100001278,,,,,,,,,141.21320530000958,141.22805100001278,141.22805100001278,146.5481970999972,0,5.317850399995223,,,,,,,,,,,,,,,,NB,23,F,L,R,2025-02-19_11h52.29.944,ContrastSen,2024.2.4,59.7686117947633,2025-02-19 11h53.57.241136 +0000,
44,0.05,0.007943282347242816,,,,146.561989800015,,,,,,,,,146.54857000001357,146.561989800015,146.561989800015,150.248201600014,1,3.682178399991244,,,,,,,,,,,,,,,,NB,23,F,L,R,2025-02-19_11h52.29.944,ContrastSen,2024.2.4,59.7686117947633,2025-02-19 11h53.57.241136 +0000,
45,0.05,0.007943282347242816,,,,150.26136589999078,,,,,,,,,150.24866450001718,150.26136589999078,150.26136589999078,152.61470470001223,1,2.3476272000116296,,,,,,,,,,,,,,,,NB,23,F,L,R,2025-02-19_11h52.29.944,ContrastSen,2024.2.4,59.7686117947633,2025-02-19 11h53.57.241136 +0000,
46,0.05,0.007943282347242816,,,,152.6278508999967,,,,,,,,,152.61518839999917,152.6278508999967,152.6278508999967,156.014863599994,0,3.374313499982236,,,,,,,,,,,,,,,,NB,23,F,L,R,2025-02-19_11h52.29.944,ContrastSen,2024.2.4,59.7686117947633,2025-02-19 11h53.57.241136 +0000,
47,0.05,0.008912509381337455,,,,156.02804120001383,,,,,,,,,156.0153605999949,156.02804120001383,156.02804120001383,160.63093469999149,1,4.588439299986931,,,,,,,,,,,,,,,,NB,23,F,L,R,2025-02-19_11h52.29.944,ContrastSen,2024.2.4,59.7686117947633,2025-02-19 11h53.57.241136 +0000,
48,0.05,0.008912509381337455,,,,160.64451670000562,,,,,,,,,160.6313388000126,160.64451670000562,160.64451670000562,162.94743659999222,1,2.2965902000141796,,,,,,,,,,,,,,,,NB,23,F,L,R,2025-02-19_11h52.29.944,ContrastSen,2024.2.4,59.7686117947633,2025-02-19 11h53.57.241136 +0000,
49,0.05,0.008912509381337455,,,,162.9614661000087,,,,,,,,,162.94785520000733,162.9614661000087,162.9614661000087,168.8965969000128,0,5.924468299985165,,,,,,,,,,,,,,,,NB,23,F,L,R,2025-02-19_11h52.29.944,ContrastSen,2024.2.4,59.7686117947633,2025-02-19 11h53.57.241136 +0000,
,,,,,,,,,,,,,,,,,,,,,168.89684669999406,168.91084540000884,168.91084540000884,231.59666589999688,right,62.68259690000559,None,,,,,,,,,NB,23,F,L,R,2025-02-19_11h52.29.944,ContrastSen,2024.2.4,59.7686117947633,2025-02-19 11h53.57.241136 +0000,
,,,0,0.6,1.0,231.60983699999633,,,,,,,,,,,,,,,,,,,,,,231.59712290001335,231.60983699999633,231.60983699999633,233.11101329998928,1,1.490441900008591,,,NB,23,F,L,R,2025-02-19_11h52.29.944,ContrastSen,2024.2.4,59.7686117947633,2025-02-19 11h53.57.241136 +0000,
,,,1,0.6,0.251188643150958,233.12605270001222,,,,,,,,,,,,,,,,,,,,,,233.1111901999975,233.12605270001222,233.12605270001222,233.82699950001552,1,0.6951296999759506,,,NB,23,F,L,R,2025-02-19_11h52.29.944,ContrastSen,2024.2.4,59.7686117947633,2025-02-19 11h53.57.241136 +0000,
,,,2,0.6,0.06309573444801933,233.84265959999175,,,,,,,,,,,,,,,,,,,,,,233.82715420000022,233.84265959999175,233.84265959999175,235.27733070001705,1,1.428899199992884,,,NB,23,F,L,R,2025-02-19_11h52.29.944,ContrastSen,2024.2.4,59.7686117947633,2025-02-19 11h53.57.241136 +0000,
,,,3,0.4,0.015848931924611138,235.29262339998968,,,,,,,,,,,,,,,,,,,,,,235.2776170000143,235.29262339998968,235.29262339998968,237.22671010001795,0,1.9176071000110824,,,NB,23,F,L,R,2025-02-19_11h52.29.944,ContrastSen,2024.2.4,59.7686117947633,2025-02-19 11h53.57.241136 +0000,
,,,4,0.4,0.039810717055349734,237.24278600001708,,,,,,,,,,,,,,,,,,,,,,237.22688269999344,237.24278600001708,237.24278600001708,238.41309570000158,1,1.16445609999937,,,NB,23,F,L,R,2025-02-19_11h52.29.944,ContrastSen,2024.2.4,59.7686117947633,2025-02-19 11h53.57.241136 +0000,
,,,5,0.4,0.039810717055349734,238.42647020000732,,,,,,,,,,,,,,,,,,,,,,238.41349929998978,238.42647020000732,238.42647020000732,239.26122919999762,1,0.8239155999908689,,,NB,23,F,L,R,2025-02-19_11h52.29.944,ContrastSen,2024.2.4,59.7686117947633,2025-02-19 11h53.57.241136 +0000,
,,,6,0.4,0.039810717055349734,239.27591339999344,,,,,,,,,,,,,,,,,,,,,,239.261717699992,239.27591339999344,239.27591339999344,240.19517660001293,1,0.9061711999820545,,,NB,23,F,L,R,2025-02-19_11h52.29.944,ContrastSen,2024.2.4,59.7686117947633,2025-02-19 11h53.57.241136 +0000,
,,,7,0.2,0.015848931924611138,240.20987280001282,,,,,,,,,,,,,,,,,,,,,,240.19556170000578,240.20987280001282,240.20987280001282,241.2456705000077,0,1.0198458999802824,,,NB,23,F,L,R,2025-02-19_11h52.29.944,ContrastSen,2024.2.4,59.7686117947633,2025-02-19 11h53.57.241136 +0000,
,,,8,0.2,0.025118864315095808,241.25984020001488,,,,,,,,,,,,,,,,,,,,,,241.24611999999615,241.25984020001488,241.25984020001488,242.2270003000158,1,0.9518911000050139,,,NB,23,F,L,R,2025-02-19_11h52.29.944,ContrastSen,2024.2.4,59.7686117947633,2025-02-19 11h53.57.241136 +0000,
,,,9,0.2,0.025118864315095808,242.24257339999895,,,,,,,,,,,,,,,,,,,,,,242.22714730000007,242.24257339999895,242.24257339999895,243.32941430000938,1,1.0697723999910522,,,NB,23,F,L,R,2025-02-19_11h52.29.944,ContrastSen,2024.2.4,59.7686117947633,2025-02-19 11h53.57.241136 +0000,
,,,10,0.1,0.025118864315095808,243.34334490000037,,,,,,,,,,,,,,,,,,,,,,243.32992660001037,243.34334490000037,243.34334490000037,244.03103969999938,1,0.6797953000059351,,,NB,23,F,L,R,2025-02-19_11h52.29.944,ContrastSen,2024.2.4,59.7686117947633,2025-02-19 11h53.57.241136 +0000,
,,,11,0.1,0.019952623149688802,244.04295910001383,,,,,,,,,,,,,,,,,,,,,,244.03147529999842,244.04295910001383,244.04295910001383,246.34772630000953,1,2.288377999997465,,,NB,23,F,L,R,2025-02-19_11h52.29.944,ContrastSen,2024.2.4,59.7686117947633,2025-02-19 11h53.57.241136 +0000,
,,,12,0.05,0.019952623149688802,246.35964040001272,,,,,,,,,,,,,,,,,,,,,,246.3483242999937,246.35964040001272,246.35964040001272,249.12905389998923,0,2.765404200006742,,,NB,23,F,L,R,2025-02-19_11h52.29.944,ContrastSen,2024.2.4,59.7686117947633,2025-02-19 11h53.57.241136 +0000,
,,,13,0.05,0.022387211385683402,249.1430013999925,,,,,,,,,,,,,,,,,,,,,,249.1296108000097,249.1430013999925,249.1430013999925,251.71230270000524,1,2.55185389998951,,,NB,23,F,L,R,2025-02-19_11h52.29.944,ContrastSen,2024.2.4,59.7686117947633,2025-02-19 11h53.57.241136 +0000,
,,,14,0.05,0.022387211385683402,251.725688800012,,,,,,,,,,,,,,,,,,,,,,251.71275890001561,251.725688800012,251.725688800012,254.31299090001266,1,2.5767485000251327,,,NB,23,F,L,R,2025-02-19_11h52.29.944,ContrastSen,2024.2.4,59.7686117947633,2025-02-19 11h53.57.241136 +0000,
,,,15,0.05,0.022387211385683402,254.32607519999146,,,,,,,,,,,,,,,,,,,,,,254.31355439999606,254.32607519999146,254.32607519999146,257.9602361000143,1,3.621770600002492,,,NB,23,F,L,R,2025-02-19_11h52.29.944,ContrastSen,2024.2.4,59.7686117947633,2025-02-19 11h53.57.241136 +0000,
,,,16,0.05,0.019952623149688802,257.97561210001004,,,,,,,,,,,,,,,,,,,,,,257.9605344000156,257.97561210001004,257.97561210001004,259.67917399998987,1,1.6992296999960672,,,NB,23,F,L,R,2025-02-19_11h52.29.944,ContrastSen,2024.2.4,59.7686117947633,2025-02-19 11h53.57.241136 +0000,
,,,17,0.05,0.019952623149688802,259.69269349999377,,,,,,,,,,,,,,,,,,,,,,259.67953319998924,259.69269349999377,259.69269349999377,260.67684130001,1,0.9704343999910634,,,NB,23,F,L,R,2025-02-19_11h52.29.944,ContrastSen,2024.2.4,59.7686117947633,2025-02-19 11h53.57.241136 +0000,
,,,18,0.05,0.019952623149688802,260.6922365000064,,,,,,,,,,,,,,,,,,,,,,260.67705460000434,260.6922365000064,260.6922365000064,262.1451847999997,1,1.436016899999231,,,NB,23,F,L,R,2025-02-19_11h52.29.944,ContrastSen,2024.2.4,59.7686117947633,2025-02-19 11h53.57.241136 +0000,
,,,19,0.05,0.017782794100389236,262.1593804000004,,,,,,,,,,,,,,,,,,,,,,262.1456395999994,262.1593804000004,262.1593804000004,265.6780638000055,1,3.5156619000190403,,,NB,23,F,L,R,2025-02-19_11h52.29.944,ContrastSen,2024.2.4,59.7686117947633,2025-02-19 11h53.57.241136 +0000,
,,,20,0.05,0.017782794100389236,265.69263840001076,,,,,,,,,,,,,,,,,,,,,,265.6784717999981,265.69263840001076,265.69263840001076,267.7615147999895,1,2.0524634000030346,,,NB,23,F,L,R,2025-02-19_11h52.29.944,ContrastSen,2024.2.4,59.7686117947633,2025-02-19 11h53.57.241136 +0000,
,,,21,0.05,0.017782794100389236,267.77578480000375,,,,,,,,,,,,,,,,,,,,,,267.7619271000149,267.77578480000375,267.77578480000375,269.695014500001,1,1.9127221999806352,,,NB,23,F,L,R,2025-02-19_11h52.29.944,ContrastSen,2024.2.4,59.7686117947633,2025-02-19 11h53.57.241136 +0000,
,,,22,0.05,0.015848931924611145,269.70928360000835,,,,,,,,,,,,,,,,,,,,,,269.6954595000134,269.70928360000835,269.70928360000835,270.562854000018,0,0.8507521999999881,,,NB,23,F,L,R,2025-02-19_11h52.29.944,ContrastSen,2024.2.4,59.7686117947633,2025-02-19 11h53.57.241136 +0000,
,,,23,0.05,0.017782794100389236,270.5756126999913,,,,,,,,,,,,,,,,,,,,,,270.5633128999907,270.5756126999913,270.5756126999913,272.8642466000165,1,2.2687681000097655,,,NB,23,F,L,R,2025-02-19_11h52.29.944,ContrastSen,2024.2.4,59.7686117947633,2025-02-19 11h53.57.241136 +0000,
,,,24,0.05,0.017782794100389236,272.8753560000041,,,,,,,,,,,,,,,,,,,,,,272.8650036000181,272.8753560000041,272.8753560000041,278.92772130001686,1,6.035182100022212,,,NB,23,F,L,R,2025-02-19_11h52.29.944,ContrastSen,2024.2.4,59.7686117947633,2025-02-19 11h53.57.241136 +0000,
,,,25,0.05,0.017782794100389236,278.9424186999968,,,,,,,,,,,,,,,,,,,,,,278.92805950000184,278.9424186999968,278.9424186999968,280.92824939999264,1,1.9750555000209715,,,NB,23,F,L,R,2025-02-19_11h52.29.944,ContrastSen,2024.2.4,59.7686117947633,2025-02-19 11h53.57.241136 +0000,
,,,26,0.05,0.015848931924611145,280.942397900013,,,,,,,,,,,,,,,,,,,,,,280.9287559000077,280.942397900013,280.942397900013,282.99571869999636,1,2.0391225999919698,,,NB,23,F,L,R,2025-02-19_11h52.29.944,ContrastSen,2024.2.4,59.7686117947633,2025-02-19 11h53.57.241136 +0000,
,,,27,0.05,0.015848931924611145,283.0086534000002,,,,,,,,,,,,,,,,,,,,,,282.9962658000004,283.0086534000002,283.0086534000002,284.0764797000156,1,1.0564146999968216,,,NB,23,F,L,R,2025-02-19_11h52.29.944,ContrastSen,2024.2.4,59.7686117947633,2025-02-19 11h53.57.241136 +0000,
,,,28,0.05,0.015848931924611145,284.09216699999524,,,,,,,,,,,,,,,,,,,,,,284.07675229999586,284.09216699999524,284.09216699999524,286.6448417000065,1,2.540822400012985,,,NB,23,F,L,R,2025-02-19_11h52.29.944,ContrastSen,2024.2.4,59.7686117947633,2025-02-19 11h53.57.241136 +0000,
,,,29,0.05,0.014125375446227552,286.6589071000053,,,,,,,,,,,,,,,,,,,,,,286.6452835999953,286.6589071000053,286.6589071000053,288.74435339999036,1,2.067676400009077,,,NB,23,F,L,R,2025-02-19_11h52.29.944,ContrastSen,2024.2.4,59.7686117947633,2025-02-19 11h53.57.241136 +0000,
,,,30,0.05,0.014125375446227552,288.7588052999927,,,,,,,,,,,,,,,,,,,,,,288.74478959999396,288.7588052999927,288.7588052999927,290.52659930000664,1,1.761816899990663,,,NB,23,F,L,R,2025-02-19_11h52.29.944,ContrastSen,2024.2.4,59.7686117947633,2025-02-19 11h53.57.241136 +0000,
,,,31,0.05,0.014125375446227552,290.5416255000164,,,,,,,,,,,,,,,,,,,,,,290.5268754000135,290.5416255000164,290.5416255000164,296.94526740000583,1,6.3949016999977175,,,NB,23,F,L,R,2025-02-19_11h52.29.944,ContrastSen,2024.2.4,59.7686117947633,2025-02-19 11h53.57.241136 +0000,
,,,32,0.05,0.012589254117941682,296.95873430001666,,,,,,,,,,,,,,,,,,,,,,296.94580210000277,296.95873430001666,296.95873430001666,301.29507600000943,1,4.3292738999880385,,,NB,23,F,L,R,2025-02-19_11h52.29.944,ContrastSen,2024.2.4,59.7686117947633,2025-02-19 11h53.57.241136 +0000,
,,,33,0.05,0.012589254117941682,301.30844379999326,,,,,,,,,,,,,,,,,,,,,,301.2955853000167,301.30844379999326,301.30844379999326,305.17992100000265,1,3.8669816000037827,,,NB,23,F,L,R,2025-02-19_11h52.29.944,ContrastSen,2024.2.4,59.7686117947633,2025-02-19 11h53.57.241136 +0000,
,,,34,0.05,0.012589254117941682,305.19119650000357,,,,,,,,,,,,,,,,,,,,,,305.18032250000397,305.19119650000357,305.19119650000357,307.9929439999978,1,2.797775199986063,,,NB,23,F,L,R,2025-02-19_11h52.29.944,ContrastSen,2024.2.4,59.7686117947633,2025-02-19 11h53.57.241136 +0000,
,,,35,0.05,0.011220184543019644,308.0080417999998,,,,,,,,,,,,,,,,,,,,,,307.99321610000334,308.0080417999998,308.0080417999998,309.64611040000455,1,1.6351527999795508,,,NB,23,F,L,R,2025-02-19_11h52.29.944,ContrastSen,2024.2.4,59.7686117947633,2025-02-19 11h53.57.241136 +0000,
,,,36,0.05,0.011220184543019644,309.6583152000094,,,,,,,,,,,,,,,,,,,,,,309.64657139999326,309.6583152000094,309.6583152000094,314.29591660000733,0,4.634507900016615,,,NB,23,F,L,R,2025-02-19_11h52.29.944,ContrastSen,2024.2.4,59.7686117947633,2025-02-19 11h53.57.241136 +0000,
,,,37,0.05,0.012589254117941682,314.30803760001436,,,,,,,,,,,,,,,,,,,,,,314.296376400016,314.30803760001436,314.30803760001436,317.92802330001723,1,3.6095060000079684,,,NB,23,F,L,R,2025-02-19_11h52.29.944,ContrastSen,2024.2.4,59.7686117947633,2025-02-19 11h53.57.241136 +0000,
,,,38,0.05,0.012589254117941682,317.9414961000148,,,,,,,,,,,,,,,,,,,,,,317.92847760001314,317.9414961000148,317.9414961000148,319.91035379999084,1,1.9650711999856867,,,NB,23,F,L,R,2025-02-19_11h52.29.944,ContrastSen,2024.2.4,59.7686117947633,2025-02-19 11h53.57.241136 +0000,
,,,39,0.05,0.012589254117941682,319.9241075000027,,,,,,,,,,,,,,,,,,,,,,319.91075999999885,319.9241075000027,319.9241075000027,322.1107614999928,0,2.1728166999819223,,,NB,23,F,L,R,2025-02-19_11h52.29.944,ContrastSen,2024.2.4,59.7686117947633,2025-02-19 11h53.57.241136 +0000,
,,,40,0.05,0.014125375446227552,322.124266800005,,,,,,,,,,,,,,,,,,,,,,322.11124990001554,322.124266800005,322.124266800005,324.3112511000072,0,2.1806986999872606,,,NB,23,F,L,R,2025-02-19_11h52.29.944,ContrastSen,2024.2.4,59.7686117947633,2025-02-19 11h53.57.241136 +0000,
,,,41,0.05,0.015848931924611145,324.3244166999939,,,,,,,,,,,,,,,,,,,,,,324.31171959999483,324.3244166999939,324.3244166999939,326.90972019999754,1,2.5791712000209372,,,NB,23,F,L,R,2025-02-19_11h52.29.944,ContrastSen,2024.2.4,59.7686117947633,2025-02-19 11h53.57.241136 +0000,
,,,42,0.05,0.015848931924611145,326.9243948000076,,,,,,,,,,,,,,,,,,,,,,326.91006429999834,326.9243948000076,326.9243948000076,327.9277646999981,1,1.0005307999963406,,,NB,23,F,L,R,2025-02-19_11h52.29.944,ContrastSen,2024.2.4,59.7686117947633,2025-02-19 11h53.57.241136 +0000,
,,,43,0.05,0.015848931924611145,327.9408017999958,,,,,,,,,,,,,,,,,,,,,,327.9282460999966,327.9408017999958,327.9408017999958,328.960724900011,1,1.0091074999945704,,,NB,23,F,L,R,2025-02-19_11h52.29.944,ContrastSen,2024.2.4,59.7686117947633,2025-02-19 11h53.57.241136 +0000,
,,,44,0.05,0.014125375446227552,328.97399240001687,,,,,,,,,,,,,,,,,,,,,,328.96117749999394,328.97399240001687,328.97399240001687,330.39381700000376,1,1.4158338999841362,,,NB,23,F,L,R,2025-02-19_11h52.29.944,ContrastSen,2024.2.4,59.7686117947633,2025-02-19 11h53.57.241136 +0000,
,,,45,0.05,0.014125375446227552,330.4078301000118,,,,,,,,,,,,,,,,,,,,,,330.3942660999892,330.4078301000118,330.4078301000118,333.0767895000172,1,2.6516724999819417,,,NB,23,F,L,R,2025-02-19_11h52.29.944,ContrastSen,2024.2.4,59.7686117947633,2025-02-19 11h53.57.241136 +0000,
,,,46,0.05,0.014125375446227552,333.091081999999,,,,,,,,,,,,,,,,,,,,,,333.0772272000031,333.091081999999,333.091081999999,334.14543820000836,1,1.0403240000014193,,,NB,23,F,L,R,2025-02-19_11h52.29.944,ContrastSen,2024.2.4,59.7686117947633,2025-02-19 11h53.57.241136 +0000,
,,,47,0.05,0.012589254117941682,334.1573137000087,,,,,,,,,,,,,,,,,,,,,,334.14595150001696,334.1573137000087,334.1573137000087,336.14184660001774,1,1.977677599992603,,,NB,23,F,L,R,2025-02-19_11h52.29.944,ContrastSen,2024.2.4,59.7686117947633,2025-02-19 11h53.57.241136 +0000,
,,,48,0.05,0.012589254117941682,336.157191300008,,,,,,,,,,,,,,,,,,,,,,336.14208980000694,336.157191300008,336.157191300008,338.2264913000108,1,2.0609297000046354,,,NB,23,F,L,R,2025-02-19_11h52.29.944,ContrastSen,2024.2.4,59.7686117947633,2025-02-19 11h53.57.241136 +0000,
,,,49,0.05,0.012589254117941682,338.24106659999234,,,,,,,,,,,,,,,,,,,,,,338.2269050999894,338.24106659999234,338.24106659999234,341.37507750000805,1,3.128416899999138,,,NB,23,F,L,R,2025-02-19_11h52.29.944,ContrastSen,2024.2.4,59.7686117947633,2025-02-19 11h53.57.241136 +0000,
,,,,,,,,,,,,,,,,,,,,,,,,,,,,,,,,,,341.37520040001255,341.37564129999373,NB,23,F,L,R,2025-02-19_11h52.29.944,ContrastSen,2024.2.4,59.7686117947633,2025-02-19 11h53.57.241136 +0000,
