StairLoop.thisTrialN,StairLoop.stepSize,StairLoop.intensity,StairLoop2.thisTrialN,StairLoop2.stepSize,StairLoop2.intensity,thisRow.t,notes,Intro.started,Instructions.started,key_resp_2.started,Intro.stopped,key_resp_2.keys,key_resp_2.rt,key_resp_2.duration,Left.started,Arrow.started,key_resp.started,Left.stopped,StairLoop.response,key_resp.rt,Pre_SecondBlock.started,key_resp_3.started,Change_eye.started,Pre_SecondBlock.stopped,key_resp_3.keys,key_resp_3.rt,key_resp_3.duration,Right.started,Arrow2.started,Key_Resp2.started,Right.stopped,StairLoop2.response,Key_Resp2.rt,End.started,End.stopped,participant,Age,Gender(M/F/N),Dominant Eye(L/R),Handedness(L/R),date,expName,psychopyVersion,frameRate,expStart,
,,,,,,,,0.002747199992882088,0.006320699991192669,0.006320699991192669,13.719952899991767,right,13.614384199987398,None,,,,,,,,,,,,,,,,,,,,,,VMM,18,F,L,R,2025-02-19_13h40.05.899,ContrastSen,2024.2.4,60.112482469439165,2025-02-19 13h40.46.584460 +0000,
0,0.6,1.0,,,,13.725661500007845,,,,,,,,,13.720210500003304,13.725661500007845,13.725661500007845,14.385576400003629,1,0.6555246999778319,,,,,,,,,,,,,,,,VMM,18,F,L,R,2025-02-19_13h40.05.899,ContrastSen,2024.2.4,60.112482469439165,2025-02-19 13h40.46.584460 +0000,
1,0.6,0.251188643150958,,,,14.39998819999164,,,,,,,,,14.385999699996319,14.39998819999164,14.39998819999164,16.92012799999793,1,2.5163644999847747,,,,,,,,,,,,,,,,VMM,18,F,L,R,2025-02-19_13h40.05.899,ContrastSen,2024.2.4,60.112482469439165,2025-02-19 13h40.46.584460 +0000,
2,0.6,0.06309573444801933,,,,16.932954599993536,,,,,,,,,16.920607100008056,16.932954599993536,16.932954599993536,17.735992600006284,1,0.7852268000133336,,,,,,,,,,,,,,,,VMM,18,F,L,R,2025-02-19_13h40.05.899,ContrastSen,2024.2.4,60.112482469439165,2025-02-19 13h40.46.584460 +0000,
3,0.6,0.015848931924611138,,,,17.749921600014204,,,,,,,,,17.736496700003045,17.749921600014204,17.749921600014204,19.0536006000184,1,1.2996389999752864,,,,,,,,,,,,,,,,VMM,18,F,L,R,2025-02-19_13h40.05.899,ContrastSen,2024.2.4,60.112482469439165,2025-02-19 13h40.46.584460 +0000,
4,0.4,0.003981071705534973,,,,19.06607639999129,,,,,,,,,19.05406490000314,19.06607639999129,19.06607639999129,20.78684479999356,0,1.7057192999927793,,,,,,,,,,,,,,,,VMM,18,F,L,R,2025-02-19_13h40.05.899,ContrastSen,2024.2.4,60.112482469439165,2025-02-19 13h40.46.584460 +0000,
5,0.4,0.010000000000000002,,,,20.79958250001073,,,,,,,,,20.787385300005553,20.79958250001073,20.79958250001073,22.152441700018244,0,1.3462931000103708,,,,,,,,,,,,,,,,VMM,18,F,L,R,2025-02-19_13h40.05.899,ContrastSen,2024.2.4,60.112482469439165,2025-02-19 13h40.46.584460 +0000,
6,0.4,0.025118864315095805,,,,22.165882500004955,,,,,,,,,22.152902200003155,22.165882500004955,22.165882500004955,23.183477400016272,1,1.0015113000117708,,,,,,,,,,,,,,,,VMM,18,F,L,R,2025-02-19_13h40.05.899,ContrastSen,2024.2.4,60.112482469439165,2025-02-19 13h40.46.584460 +0000,
7,0.4,0.025118864315095805,,,,23.199128400010522,,,,,,,,,23.183638799993787,23.199128400010522,23.199128400010522,24.000843000016175,1,0.7941512000106741,,,,,,,,,,,,,,,,VMM,18,F,L,R,2025-02-19_13h40.05.899,ContrastSen,2024.2.4,60.112482469439165,2025-02-19 13h40.46.584460 +0000,
8,0.4,0.025118864315095805,,,,24.01573010001448,,,,,,,,,24.001001800002996,24.01573010001448,24.01573010001448,24.78616210000473,1,0.75932469998952,,,,,,,,,,,,,,,,VMM,18,F,L,R,2025-02-19_13h40.05.899,ContrastSen,2024.2.4,60.112482469439165,2025-02-19 13h40.46.584460 +0000,
9,0.4,0.010000000000000002,,,,24.79942709999159,,,,,,,,,24.78665490000276,24.79942709999159,24.79942709999159,26.303203199990094,1,1.4921885000076145,,,,,,,,,,,,,,,,VMM,18,F,L,R,2025-02-19_13h40.05.899,ContrastSen,2024.2.4,60.112482469439165,2025-02-19 13h40.46.584460 +0000,
10,0.2,0.010000000000000002,,,,26.316426400007913,,,,,,,,,26.303626900014933,26.316426400007913,26.316426400007913,27.002146100014215,0,0.6787523000093643,,,,,,,,,,,,,,,,VMM,18,F,L,R,2025-02-19_13h40.05.899,ContrastSen,2024.2.4,60.112482469439165,2025-02-19 13h40.46.584460 +0000,
11,0.2,0.015848931924611138,,,,27.016097799991257,,,,,,,,,27.002641500002937,27.016097799991257,27.016097799991257,27.79998599999817,1,0.7786789999809116,,,,,,,,,,,,,,,,VMM,18,F,L,R,2025-02-19_13h40.05.899,ContrastSen,2024.2.4,60.112482469439165,2025-02-19 13h40.46.584460 +0000,
12,0.2,0.015848931924611138,,,,27.816208700009156,,,,,,,,,27.80012440000428,27.816208700009156,27.816208700009156,28.51909469999373,1,0.6921565000084229,,,,,,,,,,,,,,,,VMM,18,F,L,R,2025-02-19_13h40.05.899,ContrastSen,2024.2.4,60.112482469439165,2025-02-19 13h40.46.584460 +0000,
13,0.1,0.015848931924611138,,,,28.53316839999752,,,,,,,,,28.519668099994306,28.53316839999752,28.53316839999752,29.252221100003226,1,0.7122304999793414,,,,,,,,,,,,,,,,VMM,18,F,L,R,2025-02-19_13h40.05.899,ContrastSen,2024.2.4,60.112482469439165,2025-02-19 13h40.46.584460 +0000,
14,0.1,0.012589254117941673,,,,29.266068800003268,,,,,,,,,29.252651799994055,29.266068800003268,29.266068800003268,30.334625399991637,1,1.061640100000659,,,,,,,,,,,,,,,,VMM,18,F,L,R,2025-02-19_13h40.05.899,ContrastSen,2024.2.4,60.112482469439165,2025-02-19 13h40.46.584460 +0000,
15,0.05,0.012589254117941673,,,,30.349056200007908,,,,,,,,,30.335042999999132,30.349056200007908,30.349056200007908,31.803300800005672,0,1.4422754000115674,,,,,,,,,,,,,,,,VMM,18,F,L,R,2025-02-19_13h40.05.899,ContrastSen,2024.2.4,60.112482469439165,2025-02-19 13h40.46.584460 +0000,
16,0.05,0.014125375446227544,,,,31.815785200014943,,,,,,,,,31.80380409999634,31.815785200014943,31.815785200014943,33.86953799999901,1,2.038272399979178,,,,,,,,,,,,,,,,VMM,18,F,L,R,2025-02-19_13h40.05.899,ContrastSen,2024.2.4,60.112482469439165,2025-02-19 13h40.46.584460 +0000,
17,0.05,0.014125375446227544,,,,33.88287550001405,,,,,,,,,33.87004340000567,33.88287550001405,33.88287550001405,34.81629160000011,1,0.9189926999970339,,,,,,,,,,,,,,,,VMM,18,F,L,R,2025-02-19_13h40.05.899,ContrastSen,2024.2.4,60.112482469439165,2025-02-19 13h40.46.584460 +0000,
18,0.05,0.014125375446227544,,,,34.83265580001171,,,,,,,,,34.816426500008674,34.83265580001171,34.83265580001171,36.768708299990976,0,1.925790799985407,,,,,,,,,,,,,,,,VMM,18,F,L,R,2025-02-19_13h40.05.899,ContrastSen,2024.2.4,60.112482469439165,2025-02-19 13h40.46.584460 +0000,
19,0.05,0.015848931924611134,,,,36.78281750000315,,,,,,,,,36.769148399995174,36.78281750000315,36.78281750000315,38.701520600006916,1,1.914672499988228,,,,,,,,,,,,,,,,VMM,18,F,L,R,2025-02-19_13h40.05.899,ContrastSen,2024.2.4,60.112482469439165,2025-02-19 13h40.46.584460 +0000,
20,0.05,0.015848931924611134,,,,38.71558119999827,,,,,,,,,38.70191810000688,38.71558119999827,38.71558119999827,39.56776180001907,1,0.8461631999816746,,,,,,,,,,,,,,,,VMM,18,F,L,R,2025-02-19_13h40.05.899,ContrastSen,2024.2.4,60.112482469439165,2025-02-19 13h40.46.584460 +0000,
21,0.05,0.015848931924611134,,,,39.58279380001477,,,,,,,,,39.56811870000092,39.58279380001477,39.58279380001477,40.60219579999102,1,1.0074649000016507,,,,,,,,,,,,,,,,VMM,18,F,L,R,2025-02-19_13h40.05.899,ContrastSen,2024.2.4,60.112482469439165,2025-02-19 13h40.46.584460 +0000,
22,0.05,0.014125375446227544,,,,40.61581049999222,,,,,,,,,40.60275900000124,40.61581049999222,40.61581049999222,41.93517609999981,1,1.30712310000672,,,,,,,,,,,,,,,,VMM,18,F,L,R,2025-02-19_13h40.05.899,ContrastSen,2024.2.4,60.112482469439165,2025-02-19 13h40.46.584460 +0000,
23,0.05,0.014125375446227544,,,,41.94950010001776,,,,,,,,,41.93555690001813,41.94950010001776,41.94950010001776,43.00204759999178,1,1.0491241000127047,,,,,,,,,,,,,,,,VMM,18,F,L,R,2025-02-19_13h40.05.899,ContrastSen,2024.2.4,60.112482469439165,2025-02-19 13h40.46.584460 +0000,
24,0.05,0.014125375446227544,,,,43.01577850000467,,,,,,,,,43.00247700000182,43.01577850000467,43.01577850000467,44.835461800015764,1,1.8117577999946661,,,,,,,,,,,,,,,,VMM,18,F,L,R,2025-02-19_13h40.05.899,ContrastSen,2024.2.4,60.112482469439165,2025-02-19 13h40.46.584460 +0000,
25,0.05,0.012589254117941673,,,,44.84921509999549,,,,,,,,,44.83586469999864,44.84921509999549,44.84921509999549,46.185860099998536,0,1.333909599983599,,,,,,,,,,,,,,,,VMM,18,F,L,R,2025-02-19_13h40.05.899,ContrastSen,2024.2.4,60.112482469439165,2025-02-19 13h40.46.584460 +0000,
26,0.05,0.014125375446227544,,,,46.199093800008995,,,,,,,,,46.18626079999376,46.199093800008995,46.199093800008995,47.218611899996176,1,1.0087005000095814,,,,,,,,,,,,,,,,VMM,18,F,L,R,2025-02-19_13h40.05.899,ContrastSen,2024.2.4,60.112482469439165,2025-02-19 13h40.46.584460 +0000,
27,0.05,0.014125375446227544,,,,47.23253929999191,,,,,,,,,47.219050699990476,47.23253929999191,47.23253929999191,48.05243559999508,1,0.8033860999858007,,,,,,,,,,,,,,,,VMM,18,F,L,R,2025-02-19_13h40.05.899,ContrastSen,2024.2.4,60.112482469439165,2025-02-19 13h40.46.584460 +0000,
28,0.05,0.014125375446227544,,,,48.06517370001529,,,,,,,,,48.052904400014086,48.06517370001529,48.06517370001529,48.80000960000325,1,0.730752899980871,,,,,,,,,,,,,,,,VMM,18,F,L,R,2025-02-19_13h40.05.899,ContrastSen,2024.2.4,60.112482469439165,2025-02-19 13h40.46.584460 +0000,
29,0.05,0.012589254117941673,,,,48.81520599999931,,,,,,,,,48.80015070000081,48.81520599999931,48.81520599999931,51.23575459999847,0,2.4110337999882177,,,,,,,,,,,,,,,,VMM,18,F,L,R,2025-02-19_13h40.05.899,ContrastSen,2024.2.4,60.112482469439165,2025-02-19 13h40.46.584460 +0000,
30,0.05,0.014125375446227544,,,,51.24890450001112,,,,,,,,,51.23627550000674,51.24890450001112,51.24890450001112,52.18483810001635,1,0.9322143000026699,,,,,,,,,,,,,,,,VMM,18,F,L,R,2025-02-19_13h40.05.899,ContrastSen,2024.2.4,60.112482469439165,2025-02-19 13h40.46.584460 +0000,
31,0.05,0.014125375446227544,,,,52.199180499999784,,,,,,,,,52.1853284999961,52.199180499999784,52.199180499999784,53.683046499994816,1,1.4795647999853827,,,,,,,,,,,,,,,,VMM,18,F,L,R,2025-02-19_13h40.05.899,ContrastSen,2024.2.4,60.112482469439165,2025-02-19 13h40.46.584460 +0000,
32,0.05,0.014125375446227544,,,,53.69840769999428,,,,,,,,,53.683250200003386,53.69840769999428,53.69840769999428,54.31712829999742,1,0.6064933000016026,,,,,,,,,,,,,,,,VMM,18,F,L,R,2025-02-19_13h40.05.899,ContrastSen,2024.2.4,60.112482469439165,2025-02-19 13h40.46.584460 +0000,
33,0.05,0.012589254117941673,,,,54.33226749999449,,,,,,,,,54.31751640001312,54.33226749999449,54.33226749999449,55.26785500001279,1,0.9245221999881323,,,,,,,,,,,,,,,,VMM,18,F,L,R,2025-02-19_13h40.05.899,ContrastSen,2024.2.4,60.112482469439165,2025-02-19 13h40.46.584460 +0000,
34,0.05,0.012589254117941673,,,,55.282296899997164,,,,,,,,,55.268269299995154,55.282296899997164,55.282296899997164,57.268548799998825,1,1.976247999991756,,,,,,,,,,,,,,,,VMM,18,F,L,R,2025-02-19_13h40.05.899,ContrastSen,2024.2.4,60.112482469439165,2025-02-19 13h40.46.584460 +0000,
35,0.05,0.012589254117941673,,,,57.28186590000405,,,,,,,,,57.268981600005645,57.28186590000405,57.28186590000405,59.11717949999729,0,1.822040399973048,,,,,,,,,,,,,,,,VMM,18,F,L,R,2025-02-19_13h40.05.899,ContrastSen,2024.2.4,60.112482469439165,2025-02-19 13h40.46.584460 +0000,
36,0.05,0.014125375446227544,,,,59.13179680000758,,,,,,,,,59.117503699992085,59.13179680000758,59.13179680000758,60.00333629999659,1,0.8531397999904584,,,,,,,,,,,,,,,,VMM,18,F,L,R,2025-02-19_13h40.05.899,ContrastSen,2024.2.4,60.112482469439165,2025-02-19 13h40.46.584460 +0000,
37,0.05,0.014125375446227544,,,,60.015379199991,,,,,,,,,60.00391560001299,60.015379199991,60.015379199991,60.851956500002416,1,0.8260403999884147,,,,,,,,,,,,,,,,VMM,18,F,L,R,2025-02-19_13h40.05.899,ContrastSen,2024.2.4,60.112482469439165,2025-02-19 13h40.46.584460 +0000,
38,0.05,0.014125375446227544,,,,60.86540820001392,,,,,,,,,60.85244350001449,60.86540820001392,60.86540820001392,61.768208599998616,1,0.8973239999904763,,,,,,,,,,,,,,,,VMM,18,F,L,R,2025-02-19_13h40.05.899,ContrastSen,2024.2.4,60.112482469439165,2025-02-19 13h40.46.584460 +0000,
39,0.05,0.012589254117941673,,,,61.78206019999925,,,,,,,,,61.76865589999943,61.78206019999925,61.78206019999925,62.55152700000326,1,0.7589434999972582,,,,,,,,,,,,,,,,VMM,18,F,L,R,2025-02-19_13h40.05.899,ContrastSen,2024.2.4,60.112482469439165,2025-02-19 13h40.46.584460 +0000,
40,0.05,0.012589254117941673,,,,62.565255499997875,,,,,,,,,62.551966099999845,62.565255499997875,62.565255499997875,63.90204489999451,0,1.3277016000065487,,,,,,,,,,,,,,,,VMM,18,F,L,R,2025-02-19_13h40.05.899,ContrastSen,2024.2.4,60.112482469439165,2025-02-19 13h40.46.584460 +0000,
41,0.05,0.014125375446227544,,,,63.915189599996665,,,,,,,,,63.90246230000048,63.915189599996665,63.915189599996665,64.58513890000177,1,0.657966500002658,,,,,,,,,,,,,,,,VMM,18,F,L,R,2025-02-19_13h40.05.899,ContrastSen,2024.2.4,60.112482469439165,2025-02-19 13h40.46.584460 +0000,
42,0.05,0.014125375446227544,,,,64.59854619999533,,,,,,,,,64.58556609999505,64.59854619999533,64.59854619999533,65.43609090000973,1,0.8184676000091713,,,,,,,,,,,,,,,,VMM,18,F,L,R,2025-02-19_13h40.05.899,ContrastSen,2024.2.4,60.112482469439165,2025-02-19 13h40.46.584460 +0000,
43,0.05,0.014125375446227544,,,,65.44885459999205,,,,,,,,,65.43667060000007,65.44885459999205,65.44885459999205,66.38484710000921,1,0.9216752999927849,,,,,,,,,,,,,,,,VMM,18,F,L,R,2025-02-19_13h40.05.899,ContrastSen,2024.2.4,60.112482469439165,2025-02-19 13h40.46.584460 +0000,
44,0.05,0.012589254117941673,,,,66.39869970001746,,,,,,,,,66.38528909999877,66.39869970001746,66.39869970001746,67.60148680000566,0,1.1961040000023786,,,,,,,,,,,,,,,,VMM,18,F,L,R,2025-02-19_13h40.05.899,ContrastSen,2024.2.4,60.112482469439165,2025-02-19 13h40.46.584460 +0000,
45,0.05,0.014125375446227544,,,,67.61517599999206,,,,,,,,,67.60192710001138,67.61517599999206,67.61517599999206,69.31875320000108,0,1.6945773999905214,,,,,,,,,,,,,,,,VMM,18,F,L,R,2025-02-19_13h40.05.899,ContrastSen,2024.2.4,60.112482469439165,2025-02-19 13h40.46.584460 +0000,
46,0.05,0.015848931924611134,,,,69.33198069999344,,,,,,,,,69.31930810000631,69.33198069999344,69.33198069999344,69.96824180000112,1,0.6230529999884311,,,,,,,,,,,,,,,,VMM,18,F,L,R,2025-02-19_13h40.05.899,ContrastSen,2024.2.4,60.112482469439165,2025-02-19 13h40.46.584460 +0000,
47,0.05,0.015848931924611134,,,,69.98172250000061,,,,,,,,,69.9686742000049,69.98172250000061,69.98172250000061,70.7350662999961,1,0.7488902999903075,,,,,,,,,,,,,,,,VMM,18,F,L,R,2025-02-19_13h40.05.899,ContrastSen,2024.2.4,60.112482469439165,2025-02-19 13h40.46.584460 +0000,
48,0.05,0.015848931924611134,,,,70.74864560001879,,,,,,,,,70.73550569999497,70.74864560001879,70.74864560001879,71.5185754999984,1,0.7658646999916527,,,,,,,,,,,,,,,,VMM,18,F,L,R,2025-02-19_13h40.05.899,ContrastSen,2024.2.4,60.112482469439165,2025-02-19 13h40.46.584460 +0000,
49,0.05,0.014125375446227544,,,,71.5320192000072,,,,,,,,,71.51916240001447,71.5320192000072,71.5320192000072,72.33532519999426,1,0.7857961999834515,,,,,,,,,,,,,,,,VMM,18,F,L,R,2025-02-19_13h40.05.899,ContrastSen,2024.2.4,60.112482469439165,2025-02-19 13h40.46.584460 +0000,
,,,,,,,,,,,,,,,,,,,,,72.33561320000445,72.34865820000414,72.34865820000414,129.26647940001567,down,56.90386230000877,None,,,,,,,,,VMM,18,F,L,R,2025-02-19_13h40.05.899,ContrastSen,2024.2.4,60.112482469439165,2025-02-19 13h40.46.584460 +0000,
,,,0,0.6,1.0,129.28045350001776,,,,,,,,,,,,,,,,,,,,,,129.26691700000083,129.28045350001776,129.28045350001776,130.0177682999929,1,0.7194808000058401,,,VMM,18,F,L,R,2025-02-19_13h40.05.899,ContrastSen,2024.2.4,60.112482469439165,2025-02-19 13h40.46.584460 +0000,
,,,1,0.6,0.251188643150958,130.03056760001346,,,,,,,,,,,,,,,,,,,,,,130.01833389999229,130.03056760001346,130.03056760001346,130.61716409999644,1,0.5743617999833077,,,VMM,18,F,L,R,2025-02-19_13h40.05.899,ContrastSen,2024.2.4,60.112482469439165,2025-02-19 13h40.46.584460 +0000,
,,,2,0.6,0.06309573444801933,130.63045840000268,,,,,,,,,,,,,,,,,,,,,,130.61764800001401,130.63045840000268,130.63045840000268,131.29836489999434,1,0.6611504000029527,,,VMM,18,F,L,R,2025-02-19_13h40.05.899,ContrastSen,2024.2.4,60.112482469439165,2025-02-19 13h40.46.584460 +0000,
,,,3,0.6,0.015848931924611138,131.31397429999197,,,,,,,,,,,,,,,,,,,,,,131.2986946000019,131.31397429999197,131.31397429999197,132.43309350000345,1,1.1158521999896038,,,VMM,18,F,L,R,2025-02-19_13h40.05.899,ContrastSen,2024.2.4,60.112482469439165,2025-02-19 13h40.46.584460 +0000,
,,,4,0.4,0.003981071705534973,132.44690400001127,,,,,,,,,,,,,,,,,,,,,,132.43345060001593,132.44690400001127,132.44690400001127,133.3988418999943,0,0.9354945000086445,,,VMM,18,F,L,R,2025-02-19_13h40.05.899,ContrastSen,2024.2.4,60.112482469439165,2025-02-19 13h40.46.584460 +0000,
,,,5,0.4,0.010000000000000002,133.41369710001163,,,,,,,,,,,,,,,,,,,,,,133.39918490001583,133.41369710001163,133.41369710001163,134.18479160001152,1,0.7551905000000261,,,VMM,18,F,L,R,2025-02-19_13h40.05.899,ContrastSen,2024.2.4,60.112482469439165,2025-02-19 13h40.46.584460 +0000,
,,,6,0.4,0.010000000000000002,134.19721159999608,,,,,,,,,,,,,,,,,,,,,,134.18533090001438,134.19721159999608,134.19721159999608,135.1479546999908,0,0.9366642999812029,,,VMM,18,F,L,R,2025-02-19_13h40.05.899,ContrastSen,2024.2.4,60.112482469439165,2025-02-19 13h40.46.584460 +0000,
,,,7,0.4,0.025118864315095805,135.16362520001712,,,,,,,,,,,,,,,,,,,,,,135.14817289999337,135.16362520001712,135.16362520001712,135.83411990001332,1,0.6623506000032648,,,VMM,18,F,L,R,2025-02-19_13h40.05.899,ContrastSen,2024.2.4,60.112482469439165,2025-02-19 13h40.46.584460 +0000,
,,,8,0.4,0.025118864315095805,135.84724140001344,,,,,,,,,,,,,,,,,,,,,,135.8347797000024,135.84724140001344,135.84724140001344,136.4169103000022,1,0.5537191000184976,,,VMM,18,F,L,R,2025-02-19_13h40.05.899,ContrastSen,2024.2.4,60.112482469439165,2025-02-19 13h40.46.584460 +0000,
,,,9,0.4,0.025118864315095805,136.4302766000037,,,,,,,,,,,,,,,,,,,,,,136.41736350001884,136.4302766000037,136.4302766000037,137.48414919999777,1,1.0421329999808222,,,VMM,18,F,L,R,2025-02-19_13h40.05.899,ContrastSen,2024.2.4,60.112482469439165,2025-02-19 13h40.46.584460 +0000,
,,,10,0.2,0.010000000000000002,137.4972482000012,,,,,,,,,,,,,,,,,,,,,,137.48469650000334,137.4972482000012,137.4972482000012,139.36663259999477,0,1.8655305999855045,,,VMM,18,F,L,R,2025-02-19_13h40.05.899,ContrastSen,2024.2.4,60.112482469439165,2025-02-19 13h40.46.584460 +0000,
,,,11,0.2,0.015848931924611138,139.3802159000188,,,,,,,,,,,,,,,,,,,,,,139.3670936000126,139.3802159000188,139.3802159000188,140.31690959999105,1,0.9200932999956422,,,VMM,18,F,L,R,2025-02-19_13h40.05.899,ContrastSen,2024.2.4,60.112482469439165,2025-02-19 13h40.46.584460 +0000,
,,,12,0.2,0.015848931924611138,140.33009269999457,,,,,,,,,,,,,,,,,,,,,,140.31735900000785,140.33009269999457,140.33009269999457,141.74971709999954,0,1.4066172000020742,,,VMM,18,F,L,R,2025-02-19_13h40.05.899,ContrastSen,2024.2.4,60.112482469439165,2025-02-19 13h40.46.584460 +0000,
,,,13,0.2,0.025118864315095808,141.7638772999926,,,,,,,,,,,,,,,,,,,,,,141.7502017999941,141.7638772999926,141.7638772999926,142.83128849999048,1,1.0651359999901615,,,VMM,18,F,L,R,2025-02-19_13h40.05.899,ContrastSen,2024.2.4,60.112482469439165,2025-02-19 13h40.46.584460 +0000,
,,,14,0.2,0.025118864315095808,142.84659749999992,,,,,,,,,,,,,,,,,,,,,,142.83147979999194,142.84659749999992,142.84659749999992,144.38332369999262,1,1.5319315000087954,,,VMM,18,F,L,R,2025-02-19_13h40.05.899,ContrastSen,2024.2.4,60.112482469439165,2025-02-19 13h40.46.584460 +0000,
,,,15,0.1,0.025118864315095808,144.39693099999567,,,,,,,,,,,,,,,,,,,,,,144.38380020001205,144.39693099999567,144.39693099999567,145.35035339999013,1,0.9370669999916572,,,VMM,18,F,L,R,2025-02-19_13h40.05.899,ContrastSen,2024.2.4,60.112482469439165,2025-02-19 13h40.46.584460 +0000,
,,,16,0.1,0.019952623149688802,145.36361590001616,,,,,,,,,,,,,,,,,,,,,,145.35091860001558,145.36361590001616,145.36361590001616,146.2663998999924,1,0.8846438000036869,,,VMM,18,F,L,R,2025-02-19_13h40.05.899,ContrastSen,2024.2.4,60.112482469439165,2025-02-19 13h40.46.584460 +0000,
,,,17,0.1,0.019952623149688802,146.27999660000205,,,,,,,,,,,,,,,,,,,,,,146.26687900000252,146.27999660000205,146.27999660000205,147.2165009000164,1,0.931579199997941,,,VMM,18,F,L,R,2025-02-19_13h40.05.899,ContrastSen,2024.2.4,60.112482469439165,2025-02-19 13h40.46.584460 +0000,
,,,18,0.1,0.019952623149688802,147.23001630001818,,,,,,,,,,,,,,,,,,,,,,147.21695820000605,147.23001630001818,147.23001630001818,148.15027559999726,1,0.9084330000041518,,,VMM,18,F,L,R,2025-02-19_13h40.05.899,ContrastSen,2024.2.4,60.112482469439165,2025-02-19 13h40.46.584460 +0000,
,,,19,0.1,0.015848931924611138,148.16362150001805,,,,,,,,,,,,,,,,,,,,,,148.15081320001627,148.16362150001805,148.16362150001805,149.5006960000028,1,1.3198622000054456,,,VMM,18,F,L,R,2025-02-19_13h40.05.899,ContrastSen,2024.2.4,60.112482469439165,2025-02-19 13h40.46.584460 +0000,
,,,20,0.1,0.015848931924611138,149.5137389000156,,,,,,,,,,,,,,,,,,,,,,149.50118849999853,149.5137389000156,149.5137389000156,150.6999524999992,1,1.1754777999885846,,,VMM,18,F,L,R,2025-02-19_13h40.05.899,ContrastSen,2024.2.4,60.112482469439165,2025-02-19 13h40.46.584460 +0000,
,,,21,0.1,0.015848931924611138,150.71369360000244,,,,,,,,,,,,,,,,,,,,,,150.7003786000132,150.71369360000244,150.71369360000244,151.45021060001454,1,0.7307605000096373,,,VMM,18,F,L,R,2025-02-19_13h40.05.899,ContrastSen,2024.2.4,60.112482469439165,2025-02-19 13h40.46.584460 +0000,
,,,22,0.05,0.012589254117941673,151.46363149999524,,,,,,,,,,,,,,,,,,,,,,151.45070970000234,151.46363149999524,151.46363149999524,154.2665338999941,0,2.785267700004624,,,VMM,18,F,L,R,2025-02-19_13h40.05.899,ContrastSen,2024.2.4,60.112482469439165,2025-02-19 13h40.46.584460 +0000,
,,,23,0.05,0.014125375446227544,154.2801698000112,,,,,,,,,,,,,,,,,,,,,,154.26701270000194,154.2801698000112,154.2801698000112,155.416616100003,0,1.1229522000066936,,,VMM,18,F,L,R,2025-02-19_13h40.05.899,ContrastSen,2024.2.4,60.112482469439165,2025-02-19 13h40.46.584460 +0000,
,,,24,0.05,0.015848931924611134,155.42961910000304,,,,,,,,,,,,,,,,,,,,,,155.4171336000145,155.42961910000304,155.42961910000304,156.80026630000793,1,1.3518760000006296,,,VMM,18,F,L,R,2025-02-19_13h40.05.899,ContrastSen,2024.2.4,60.112482469439165,2025-02-19 13h40.46.584460 +0000,
,,,25,0.05,0.015848931924611134,156.81353040001704,,,,,,,,,,,,,,,,,,,,,,156.80079840001417,156.81353040001704,156.81353040001704,157.70013680000557,1,0.8711026999808382,,,VMM,18,F,L,R,2025-02-19_13h40.05.899,ContrastSen,2024.2.4,60.112482469439165,2025-02-19 13h40.46.584460 +0000,
,,,26,0.05,0.015848931924611134,157.7134756000014,,,,,,,,,,,,,,,,,,,,,,157.7006290999998,157.7134756000014,157.7134756000014,158.6311926000053,1,0.9120641000044998,,,VMM,18,F,L,R,2025-02-19_13h40.05.899,ContrastSen,2024.2.4,60.112482469439165,2025-02-19 13h40.46.584460 +0000,
,,,27,0.05,0.014125375446227544,158.64621030000853,,,,,,,,,,,,,,,,,,,,,,158.63156139999046,158.64621030000853,158.64621030000853,159.8816255000129,1,1.2186314999999013,,,VMM,18,F,L,R,2025-02-19_13h40.05.899,ContrastSen,2024.2.4,60.112482469439165,2025-02-19 13h40.46.584460 +0000,
,,,28,0.05,0.014125375446227544,159.89637170001515,,,,,,,,,,,,,,,,,,,,,,159.8819369999983,159.89637170001515,159.89637170001515,160.79732949999743,1,0.8910929999838118,,,VMM,18,F,L,R,2025-02-19_13h40.05.899,ContrastSen,2024.2.4,60.112482469439165,2025-02-19 13h40.46.584460 +0000,
,,,29,0.05,0.014125375446227544,160.81281249999302,,,,,,,,,,,,,,,,,,,,,,160.79748539999127,160.81281249999302,160.81281249999302,162.2657414000132,0,1.4438950000039767,,,VMM,18,F,L,R,2025-02-19_13h40.05.899,ContrastSen,2024.2.4,60.112482469439165,2025-02-19 13h40.46.584460 +0000,
,,,30,0.05,0.015848931924611134,162.2800530999957,,,,,,,,,,,,,,,,,,,,,,162.26644890001626,162.2800530999957,162.2800530999957,163.76620770001318,1,1.470864300004905,,,VMM,18,F,L,R,2025-02-19_13h40.05.899,ContrastSen,2024.2.4,60.112482469439165,2025-02-19 13h40.46.584460 +0000,
,,,31,0.05,0.015848931924611134,163.7798347999924,,,,,,,,,,,,,,,,,,,,,,163.76663030000054,163.7798347999924,163.7798347999924,164.9157361999969,1,1.130239399994025,,,VMM,18,F,L,R,2025-02-19_13h40.05.899,ContrastSen,2024.2.4,60.112482469439165,2025-02-19 13h40.46.584460 +0000,
,,,32,0.05,0.015848931924611134,164.92984600001364,,,,,,,,,,,,,,,,,,,,,,164.91620100001455,164.92984600001364,164.92984600001364,165.68286249999073,1,0.7415452999994159,,,VMM,18,F,L,R,2025-02-19_13h40.05.899,ContrastSen,2024.2.4,60.112482469439165,2025-02-19 13h40.46.584460 +0000,
,,,33,0.05,0.014125375446227544,165.69642860000022,,,,,,,,,,,,,,,,,,,,,,165.6834639000008,165.69642860000022,165.69642860000022,166.71586840000236,1,1.0099491000000853,,,VMM,18,F,L,R,2025-02-19_13h40.05.899,ContrastSen,2024.2.4,60.112482469439165,2025-02-19 13h40.46.584460 +0000,
,,,34,0.05,0.014125375446227544,166.72964569999021,,,,,,,,,,,,,,,,,,,,,,166.7163331999909,166.72964569999021,166.72964569999021,168.50055450000218,1,1.7549523999914527,,,VMM,18,F,L,R,2025-02-19_13h40.05.899,ContrastSen,2024.2.4,60.112482469439165,2025-02-19 13h40.46.584460 +0000,
,,,35,0.05,0.014125375446227544,168.5129288000171,,,,,,,,,,,,,,,,,,,,,,168.50133820000337,168.5129288000171,168.5129288000171,169.54931570001645,1,1.0322639000078198,,,VMM,18,F,L,R,2025-02-19_13h40.05.899,ContrastSen,2024.2.4,60.112482469439165,2025-02-19 13h40.46.584460 +0000,
,,,36,0.05,0.012589254117941673,169.5629054000019,,,,,,,,,,,,,,,,,,,,,,169.54981759999646,169.5629054000019,169.5629054000019,171.016277000017,0,1.447360199992545,,,VMM,18,F,L,R,2025-02-19_13h40.05.899,ContrastSen,2024.2.4,60.112482469439165,2025-02-19 13h40.46.584460 +0000,
,,,37,0.05,0.014125375446227544,171.02982270001667,,,,,,,,,,,,,,,,,,,,,,171.01693330000853,171.02982270001667,171.02982270001667,172.4647746999981,1,1.4255415000079665,,,VMM,18,F,L,R,2025-02-19_13h40.05.899,ContrastSen,2024.2.4,60.112482469439165,2025-02-19 13h40.46.584460 +0000,
,,,38,0.05,0.014125375446227544,172.47926330001792,,,,,,,,,,,,,,,,,,,,,,172.4650382999971,172.47926330001792,172.47926330001792,173.5310906000086,1,1.041833499999484,,,VMM,18,F,L,R,2025-02-19_13h40.05.899,ContrastSen,2024.2.4,60.112482469439165,2025-02-19 13h40.46.584460 +0000,
,,,39,0.05,0.014125375446227544,173.54589680000208,,,,,,,,,,,,,,,,,,,,,,173.53135730000213,173.54589680000208,173.54589680000208,174.81520219999948,1,1.25964470001054,,,VMM,18,F,L,R,2025-02-19_13h40.05.899,ContrastSen,2024.2.4,60.112482469439165,2025-02-19 13h40.46.584460 +0000,
,,,40,0.05,0.012589254117941673,174.8291190000018,,,,,,,,,,,,,,,,,,,,,,174.8156192000024,174.8291190000018,174.8291190000018,175.89878280000994,1,1.05323680001311,,,VMM,18,F,L,R,2025-02-19_13h40.05.899,ContrastSen,2024.2.4,60.112482469439165,2025-02-19 13h40.46.584460 +0000,
,,,41,0.05,0.012589254117941673,175.91286700000637,,,,,,,,,,,,,,,,,,,,,,175.89917700001388,175.91286700000637,175.91286700000637,178.0981380000012,1,2.170164699986344,,,VMM,18,F,L,R,2025-02-19_13h40.05.899,ContrastSen,2024.2.4,60.112482469439165,2025-02-19 13h40.46.584460 +0000,
,,,42,0.05,0.012589254117941673,178.11265270001604,,,,,,,,,,,,,,,,,,,,,,178.09850480000023,178.11265270001604,178.11265270001604,179.53320820000954,1,1.4052297000016551,,,VMM,18,F,L,R,2025-02-19_13h40.05.899,ContrastSen,2024.2.4,60.112482469439165,2025-02-19 13h40.46.584460 +0000,
,,,43,0.05,0.011220184543019636,179.54616030000034,,,,,,,,,,,,,,,,,,,,,,179.5337400000135,179.54616030000034,179.54616030000034,180.98263750001206,0,1.4287491000141017,,,VMM,18,F,L,R,2025-02-19_13h40.05.899,ContrastSen,2024.2.4,60.112482469439165,2025-02-19 13h40.46.584460 +0000,
,,,44,0.05,0.012589254117941673,180.99626680000802,,,,,,,,,,,,,,,,,,,,,,180.9831155000138,180.99626680000802,180.99626680000802,182.21512999999686,0,1.2017612000054214,,,VMM,18,F,L,R,2025-02-19_13h40.05.899,ContrastSen,2024.2.4,60.112482469439165,2025-02-19 13h40.46.584460 +0000,
,,,45,0.05,0.014125375446227544,182.22944399999687,,,,,,,,,,,,,,,,,,,,,,182.21552669999073,182.22944399999687,182.22944399999687,183.8489085000183,1,1.6085701000120025,,,VMM,18,F,L,R,2025-02-19_13h40.05.899,ContrastSen,2024.2.4,60.112482469439165,2025-02-19 13h40.46.584460 +0000,
,,,46,0.05,0.014125375446227544,183.86295899999095,,,,,,,,,,,,,,,,,,,,,,183.84933830000227,183.86295899999095,183.86295899999095,184.73323949999758,1,0.8633214000146836,,,VMM,18,F,L,R,2025-02-19_13h40.05.899,ContrastSen,2024.2.4,60.112482469439165,2025-02-19 13h40.46.584460 +0000,
,,,47,0.05,0.014125375446227544,184.74613200000022,,,,,,,,,,,,,,,,,,,,,,184.73376629999257,184.74613200000022,184.74613200000022,186.1654448999907,1,1.4131931999872904,,,VMM,18,F,L,R,2025-02-19_13h40.05.899,ContrastSen,2024.2.4,60.112482469439165,2025-02-19 13h40.46.584460 +0000,
,,,48,0.05,0.012589254117941673,186.17918150001788,,,,,,,,,,,,,,,,,,,,,,186.16592719999608,186.17918150001788,186.17918150001788,188.26599590000114,1,2.071500099991681,,,VMM,18,F,L,R,2025-02-19_13h40.05.899,ContrastSen,2024.2.4,60.112482469439165,2025-02-19 13h40.46.584460 +0000,
,,,49,0.05,0.012589254117941673,188.27929599999334,,,,,,,,,,,,,,,,,,,,,,188.26649730000645,188.27929599999334,188.27929599999334,189.49951059999876,1,1.2161404000071343,,,VMM,18,F,L,R,2025-02-19_13h40.05.899,ContrastSen,2024.2.4,60.112482469439165,2025-02-19 13h40.46.584460 +0000,
,,,,,,,,,,,,,,,,,,,,,,,,,,,,,,,,,,189.49976130001596,189.50059589999728,VMM,18,F,L,R,2025-02-19_13h40.05.899,ContrastSen,2024.2.4,60.112482469439165,2025-02-19 13h40.46.584460 +0000,
